SN,Btw,Trial,Block,bTrial,cCue,IMidx,IMname,CueName,Resp,RT,Corr
1,1,1,1,1,4,223, man309.jpg, cue_4.jpg,2,1.2875,1
1,1,2,1,2,2,74, man106.jpg, cue_2.jpg,4,1.8252,0
1,1,3,1,3,2,151, man201.jpg, cue_2.jpg,1,0.8431,1
1,1,4,1,4,3,200, man276.jpg, cue_3.jpg,2,1.4636,0
1,1,5,1,5,3,125, man167.jpg, cue_3.jpg,3,1.5036,0
1,1,6,1,6,4,83, man115.jpg, cue_4.jpg,2,1.4781,1
1,1,7,1,7,1,155, man206.jpg, cue_1.jpg,3,1.6732,1
1,1,8,1,8,2,77, man109.jpg, cue_2.jpg,1,0.8822,1
1,1,9,1,9,2,89, man123.jpg, cue_2.jpg,4,1.2464,0
1,1,10,1,10,3,12, man022.jpg, cue_3.jpg,2,1.4238,0
1,1,11,1,11,1,50, man073.jpg, cue_1.jpg,3,1.4981,1
1,1,12,1,12,2,161, man213.jpg, cue_2.jpg,1,1.3381,1
1,1,13,1,13,2,178, man242.jpg, cue_2.jpg,3,1.8893,0
1,1,14,1,14,1,239, man333.jpg, cue_1.jpg,2,2.1208,0
1,1,15,1,15,4,43, man064.jpg, cue_4.jpg,4,1.2858,0
1,1,16,1,16,3,152, man202.jpg, cue_3.jpg,3,1.3513,0
1,1,17,1,17,4,95, man130.jpg, cue_4.jpg,3,1.9238,0
1,1,18,1,18,1,120, man162.jpg, cue_1.jpg,1,1.1445,0
1,1,19,1,19,4,102, man138.jpg, cue_4.jpg,2,1.4235,1
1,1,20,1,20,4,31, man050.jpg, cue_4.jpg,3,1.3311,0
1,1,21,1,21,4,216, man301.jpg, cue_4.jpg,3,1.7936,0
1,1,22,1,22,4,69, man100.jpg, cue_4.jpg,2,1.1006,1
1,1,23,1,23,3,137, man183.jpg, cue_3.jpg,4,1.503,1
1,1,24,1,24,4,156, man207.jpg, cue_4.jpg,3,1.2318,0
1,1,25,1,25,2,207, man284.jpg, cue_2.jpg,1,1.0896,1
1,1,26,1,26,3,165, man222.jpg, cue_3.jpg,2,1.4613,0
1,1,27,1,27,4,123, man165.jpg, cue_4.jpg,2,1.0223,1
1,1,28,1,28,4,217, man302.jpg, cue_4.jpg,3,1.8426,0
1,1,29,1,29,3,218, man303.jpg, cue_3.jpg,3,2.0448,0
1,1,30,1,30,1,38, man059.jpg, cue_1.jpg,4,1.452,0
1,1,31,1,31,2,160, man212.jpg, cue_2.jpg,1,1.8951,1
1,1,32,1,32,4,128, man170.jpg, cue_4.jpg,3,2.0065,0
1,1,33,1,33,3,197, man271.jpg, cue_3.jpg,3,2.4744,0
1,1,34,1,34,3,192, man259.jpg, cue_3.jpg,7,0,0
1,1,35,1,35,3,80, man112.jpg, cue_3.jpg,1,1.7179,0
1,1,36,1,36,3,130, man172.jpg, cue_3.jpg,4,1.3162,1
1,1,37,1,37,2,17, man029.jpg, cue_2.jpg,3,1.6769,0
1,1,38,1,38,1,234, man327.jpg, cue_1.jpg,3,1.3891,1
1,1,39,1,39,1,186, man252.jpg, cue_1.jpg,2,0.947,0
1,1,40,1,40,4,141, man187.jpg, cue_4.jpg,4,1.4577,0
1,1,41,1,41,1,188, man254.jpg, cue_1.jpg,3,1.5606,1
1,1,42,1,42,2,72, man104.jpg, cue_2.jpg,1,1.0803,1
1,1,43,1,43,4,23, man039.jpg, cue_4.jpg,2,1.3858,1
1,1,44,1,44,4,204, man281.jpg, cue_4.jpg,4,1.4087,0
1,1,45,1,45,1,113, man155.jpg, cue_1.jpg,1,1.131,0
1,1,46,1,46,1,91, man125.jpg, cue_1.jpg,2,1.3941,0
1,1,47,1,47,1,13, man023.jpg, cue_1.jpg,3,1.6613,1
1,1,48,1,48,4,20, man034.jpg, cue_4.jpg,2,1.2238,1
1,1,49,1,49,2,86, man120.jpg, cue_2.jpg,2,2.037,0
1,1,50,1,50,3,37, man058.jpg, cue_3.jpg,1,1.0772,0
1,1,51,1,51,1,162, man215.jpg, cue_1.jpg,3,1.5494,1
1,1,52,1,52,3,68, man099.jpg, cue_3.jpg,3,1.3081,0
1,1,53,1,53,4,173, man236.jpg, cue_4.jpg,4,0.9229,0
1,1,54,1,54,2,81, man113.jpg, cue_2.jpg,3,1.7222,0
1,1,55,1,55,3,118, man160.jpg, cue_3.jpg,1,1.0637,0
1,1,56,1,56,1,26, man042.jpg, cue_1.jpg,1,1.6003,0
1,1,57,1,57,1,48, man071.jpg, cue_1.jpg,2,1.6039,0
1,1,58,1,58,3,73, man105.jpg, cue_3.jpg,4,1.0958,1
1,1,59,1,59,2,240, man336.jpg, cue_2.jpg,1,1.1289,1
1,1,60,1,60,3,45, man067.jpg, cue_3.jpg,4,1.2579,1
1,1,61,1,61,2,99, man135.jpg, cue_2.jpg,1,1.2382,1
1,1,62,1,62,1,28, man045.jpg, cue_1.jpg,3,1.5029,1
1,1,63,1,63,2,126, man168.jpg, cue_2.jpg,1,1.6352,1
1,1,64,1,64,1,202, man278.jpg, cue_1.jpg,2,1.3895,0
1,1,65,1,65,3,169, man230.jpg, cue_3.jpg,3,1.5622,0
1,1,66,1,66,3,175, man238.jpg, cue_3.jpg,4,1.4701,1
1,1,67,1,67,1,103, man139.jpg, cue_1.jpg,3,1.6013,1
1,1,68,1,68,2,62, man091.jpg, cue_2.jpg,1,1.5494,1
1,1,69,1,69,2,3, man005.jpg, cue_2.jpg,1,0.9406,1
1,1,70,1,70,4,127, man169.jpg, cue_4.jpg,2,2.0698,1
1,1,71,1,71,1,90, man124.jpg, cue_1.jpg,2,1.3112,0
1,1,72,1,72,2,154, man205.jpg, cue_2.jpg,1,1.0377,1
1,1,73,1,73,1,84, man117.jpg, cue_1.jpg,2,0.9462,0
1,1,74,1,74,1,189, man255.jpg, cue_1.jpg,4,1.1683,0
1,1,75,1,75,2,71, man102.jpg, cue_2.jpg,4,1.4454,0
1,1,76,1,76,4,5, man010.jpg, cue_4.jpg,2,1.4384,1
1,1,77,1,77,3,231, man321.jpg, cue_3.jpg,3,1.8421,0
1,1,78,1,78,2,93, man128.jpg, cue_2.jpg,3,1.1969,0
1,1,79,1,79,4,19, man032.jpg, cue_4.jpg,2,1.3439,1
1,1,80,1,80,3,131, man174.jpg, cue_3.jpg,4,1.5751,1
1,1,81,2,1,2,71, man102.jpg, cue_2.jpg,1,1.1641,1
1,1,82,2,2,1,202, man278.jpg, cue_1.jpg,3,1.229,1
1,1,83,2,3,1,239, man333.jpg, cue_1.jpg,3,0.9063,1
1,1,84,2,4,3,37, man058.jpg, cue_3.jpg,4,0.8207,1
1,1,85,2,5,4,31, man050.jpg, cue_4.jpg,2,1.4576,1
1,1,86,2,6,4,173, man236.jpg, cue_4.jpg,4,0.8531,0
1,1,87,2,7,4,83, man115.jpg, cue_4.jpg,2,0.9045,1
1,1,88,2,8,2,86, man120.jpg, cue_2.jpg,1,1.0106,1
1,1,89,2,9,1,189, man255.jpg, cue_1.jpg,3,1.1281,1
1,1,90,2,10,2,3, man005.jpg, cue_2.jpg,1,0.9042,1
1,1,91,2,11,1,113, man155.jpg, cue_1.jpg,3,0.98,1
1,1,92,2,12,4,23, man039.jpg, cue_4.jpg,2,1.1629,1
1,1,93,2,13,3,80, man112.jpg, cue_3.jpg,4,0.9837,1
1,1,94,2,14,3,68, man099.jpg, cue_3.jpg,4,0.6886,1
1,1,95,2,15,3,73, man105.jpg, cue_3.jpg,4,1.3632,1
1,1,96,2,16,3,125, man167.jpg, cue_3.jpg,4,0.682,1
1,1,97,2,17,4,127, man169.jpg, cue_4.jpg,2,1.2297,1
1,1,98,2,18,3,131, man174.jpg, cue_3.jpg,4,1.3232,1
1,1,99,2,19,3,192, man259.jpg, cue_3.jpg,3,0.9319,0
1,1,100,2,20,2,62, man091.jpg, cue_2.jpg,1,0.7703,1
1,1,101,2,21,3,175, man238.jpg, cue_3.jpg,4,0.7036,1
1,1,102,2,22,1,188, man254.jpg, cue_1.jpg,3,1.0444,1
1,1,103,2,23,2,77, man109.jpg, cue_2.jpg,2,1.2244,0
1,1,104,2,24,3,197, man271.jpg, cue_3.jpg,4,0.9389,1
1,1,105,2,25,2,99, man135.jpg, cue_2.jpg,1,0.853,1
1,1,106,2,26,2,151, man201.jpg, cue_2.jpg,4,1.7142,0
1,1,107,2,27,1,28, man045.jpg, cue_1.jpg,2,1.2638,0
1,1,108,2,28,4,43, man064.jpg, cue_4.jpg,4,1.4713,0
1,1,109,2,29,3,152, man202.jpg, cue_3.jpg,4,0.8728,1
1,1,110,2,30,4,5, man010.jpg, cue_4.jpg,2,0.8528,1
1,1,111,2,31,2,207, man284.jpg, cue_2.jpg,1,1.0257,1
1,1,112,2,32,1,13, man023.jpg, cue_1.jpg,4,0.9185,0
1,1,113,2,33,3,45, man067.jpg, cue_3.jpg,3,1.8624,0
1,1,114,2,34,3,218, man303.jpg, cue_3.jpg,3,1.6945,0
1,1,115,2,35,3,200, man276.jpg, cue_3.jpg,4,1.1644,1
1,1,116,2,36,2,72, man104.jpg, cue_2.jpg,1,0.829,1
1,1,117,2,37,3,12, man022.jpg, cue_3.jpg,4,0.8735,1
1,1,118,2,38,1,84, man117.jpg, cue_1.jpg,2,1.4292,0
1,1,119,2,39,2,161, man213.jpg, cue_2.jpg,4,1.1193,0
1,1,120,2,40,4,19, man032.jpg, cue_4.jpg,2,0.7912,1
1,1,121,2,41,2,178, man242.jpg, cue_2.jpg,3,1.2373,0
1,1,122,2,42,3,118, man160.jpg, cue_3.jpg,4,0.9038,1
1,1,123,2,43,4,102, man138.jpg, cue_4.jpg,2,1.0429,1
1,1,124,2,44,2,160, man212.jpg, cue_2.jpg,1,0.7924,1
1,1,125,2,45,2,240, man336.jpg, cue_2.jpg,4,0.9989,0
1,1,126,2,46,4,20, man034.jpg, cue_4.jpg,2,0.8667,1
1,1,127,2,47,2,154, man205.jpg, cue_2.jpg,1,0.7823,1
1,1,128,2,48,4,69, man100.jpg, cue_4.jpg,2,0.9424,1
1,1,129,2,49,4,128, man170.jpg, cue_4.jpg,2,0.8873,1
1,1,130,2,50,1,234, man327.jpg, cue_1.jpg,3,1.5866,1
1,1,131,2,51,3,130, man172.jpg, cue_3.jpg,4,0.9433,1
1,1,132,2,52,4,223, man309.jpg, cue_4.jpg,2,0.8885,1
1,1,133,2,53,1,26, man042.jpg, cue_1.jpg,4,1.5071,0
1,1,134,2,54,2,81, man113.jpg, cue_2.jpg,1,1.0021,1
1,1,135,2,55,4,141, man187.jpg, cue_4.jpg,2,1.7587,1
1,1,136,2,56,1,90, man124.jpg, cue_1.jpg,1,1.5908,0
1,1,137,2,57,4,156, man207.jpg, cue_4.jpg,2,0.9051,1
1,1,138,2,58,1,103, man139.jpg, cue_1.jpg,3,1.2372,1
1,1,139,2,59,1,120, man162.jpg, cue_1.jpg,3,0.7209,1
1,1,140,2,60,1,186, man252.jpg, cue_1.jpg,3,1.0104,1
1,1,141,2,61,2,126, man168.jpg, cue_2.jpg,1,0.9054,1
1,1,142,2,62,3,231, man321.jpg, cue_3.jpg,1,1.3955,0
1,1,143,2,63,1,38, man059.jpg, cue_1.jpg,3,1.0071,1
1,1,144,2,64,1,91, man125.jpg, cue_1.jpg,3,0.8856,1
1,1,145,2,65,2,93, man128.jpg, cue_2.jpg,1,0.8941,1
1,1,146,2,66,3,165, man222.jpg, cue_3.jpg,4,1.3376,1
1,1,147,2,67,2,17, man029.jpg, cue_2.jpg,4,1.6487,0
1,1,148,2,68,4,216, man301.jpg, cue_4.jpg,2,0.9944,1
1,1,149,2,69,2,89, man123.jpg, cue_2.jpg,2,1.2569,0
1,1,150,2,70,1,50, man073.jpg, cue_1.jpg,3,1.0505,1
1,1,151,2,71,4,217, man302.jpg, cue_4.jpg,2,1.5344,1
1,1,152,2,72,1,155, man206.jpg, cue_1.jpg,1,1.5488,0
1,1,153,2,73,3,169, man230.jpg, cue_3.jpg,4,0.7385,1
1,1,154,2,74,4,204, man281.jpg, cue_4.jpg,2,0.8357,1
1,1,155,2,75,4,95, man130.jpg, cue_4.jpg,1,0.7199,0
1,1,156,2,76,1,48, man071.jpg, cue_1.jpg,3,1.1295,1
1,1,157,2,77,2,74, man106.jpg, cue_2.jpg,1,0.8086,1
1,1,158,2,78,3,137, man183.jpg, cue_3.jpg,4,1.3841,1
1,1,159,2,79,4,123, man165.jpg, cue_4.jpg,2,0.749,1
1,1,160,2,80,1,162, man215.jpg, cue_1.jpg,3,0.7332,1
1,1,161,3,1,3,125, man167.jpg, cue_3.jpg,4,1.1555,1
1,1,162,3,2,4,123, man165.jpg, cue_4.jpg,2,0.6775,1
1,1,163,3,3,1,48, man071.jpg, cue_1.jpg,3,0.7767,1
1,1,164,3,4,4,95, man130.jpg, cue_4.jpg,2,0.8396,1
1,1,165,3,5,4,141, man187.jpg, cue_4.jpg,2,0.694,1
1,1,166,3,6,2,99, man135.jpg, cue_2.jpg,1,0.68,1
1,1,167,3,7,3,80, man112.jpg, cue_3.jpg,4,0.7803,1
1,1,168,3,8,4,156, man207.jpg, cue_4.jpg,2,0.7161,1
1,1,169,3,9,3,12, man022.jpg, cue_3.jpg,4,0.6845,1
1,1,170,3,10,3,68, man099.jpg, cue_3.jpg,4,0.6086,1
1,1,171,3,11,2,72, man104.jpg, cue_2.jpg,1,0.7271,1
1,1,172,3,12,1,13, man023.jpg, cue_1.jpg,3,0.8249,1
1,1,173,3,13,2,3, man005.jpg, cue_2.jpg,1,0.8215,1
1,1,174,3,14,1,120, man162.jpg, cue_1.jpg,3,0.6427,1
1,1,175,3,15,4,127, man169.jpg, cue_4.jpg,2,0.7129,1
1,1,176,3,16,3,218, man303.jpg, cue_3.jpg,4,0.6835,1
1,1,177,3,17,3,73, man105.jpg, cue_3.jpg,4,0.9745,1
1,1,178,3,18,4,173, man236.jpg, cue_4.jpg,2,0.8704,1
1,1,179,3,19,1,91, man125.jpg, cue_1.jpg,3,0.6581,1
1,1,180,3,20,3,118, man160.jpg, cue_3.jpg,4,0.8223,1
1,1,181,3,21,1,188, man254.jpg, cue_1.jpg,3,0.8532,1
1,1,182,3,22,1,28, man045.jpg, cue_1.jpg,3,1.6497,1
1,1,183,3,23,2,77, man109.jpg, cue_2.jpg,1,0.7006,1
1,1,184,3,24,3,231, man321.jpg, cue_3.jpg,4,1.1991,1
1,1,185,3,25,1,202, man278.jpg, cue_1.jpg,3,1.2586,1
1,1,186,3,26,1,26, man042.jpg, cue_1.jpg,1,1.224,0
1,1,187,3,27,4,5, man010.jpg, cue_4.jpg,2,1.1637,1
1,1,188,3,28,4,43, man064.jpg, cue_4.jpg,2,1.3694,1
1,1,189,3,29,1,84, man117.jpg, cue_1.jpg,2,1.1045,0
1,1,190,3,30,1,103, man139.jpg, cue_1.jpg,3,0.8726,1
1,1,191,3,31,3,175, man238.jpg, cue_3.jpg,4,0.7889,1
1,1,192,3,32,3,131, man174.jpg, cue_3.jpg,4,0.916,1
1,1,193,3,33,2,151, man201.jpg, cue_2.jpg,1,1.3383,1
1,1,194,3,34,2,154, man205.jpg, cue_2.jpg,1,0.6615,1
1,1,195,3,35,4,128, man170.jpg, cue_4.jpg,2,0.9533,1
1,1,196,3,36,2,178, man242.jpg, cue_2.jpg,1,0.7528,1
1,1,197,3,37,1,90, man124.jpg, cue_1.jpg,3,0.7544,1
1,1,198,3,38,1,155, man206.jpg, cue_1.jpg,3,0.8831,1
1,1,199,3,39,4,102, man138.jpg, cue_4.jpg,2,0.7177,1
1,1,200,3,40,1,186, man252.jpg, cue_1.jpg,2,0.6895,0
1,1,201,3,41,4,69, man100.jpg, cue_4.jpg,2,0.8094,1
1,1,202,3,42,4,20, man034.jpg, cue_4.jpg,2,0.8405,1
1,1,203,3,43,4,217, man302.jpg, cue_4.jpg,2,1.3338,1
1,1,204,3,44,2,207, man284.jpg, cue_2.jpg,1,0.7812,1
1,1,205,3,45,3,165, man222.jpg, cue_3.jpg,4,0.7796,1
1,1,206,3,46,3,37, man058.jpg, cue_3.jpg,4,0.9885,1
1,1,207,3,47,2,62, man091.jpg, cue_2.jpg,1,0.7547,1
1,1,208,3,48,1,50, man073.jpg, cue_1.jpg,3,0.8996,1
1,1,209,3,49,2,240, man336.jpg, cue_2.jpg,1,1.2133,1
1,1,210,3,50,4,216, man301.jpg, cue_4.jpg,2,0.7765,1
1,1,211,3,51,1,189, man255.jpg, cue_1.jpg,3,0.6972,1
1,1,212,3,52,4,19, man032.jpg, cue_4.jpg,2,0.6522,1
1,1,213,3,53,1,38, man059.jpg, cue_1.jpg,3,0.6882,1
1,1,214,3,54,3,197, man271.jpg, cue_3.jpg,4,0.7875,1
1,1,215,3,55,2,74, man106.jpg, cue_2.jpg,1,0.7233,1
1,1,216,3,56,3,130, man172.jpg, cue_3.jpg,4,0.6776,1
1,1,217,3,57,4,83, man115.jpg, cue_4.jpg,2,0.7134,1
1,1,218,3,58,1,162, man215.jpg, cue_1.jpg,3,0.7151,1
1,1,219,3,59,1,239, man333.jpg, cue_1.jpg,3,0.7817,1
1,1,220,3,60,2,160, man212.jpg, cue_2.jpg,1,0.7608,1
1,1,221,3,61,3,169, man230.jpg, cue_3.jpg,4,0.6524,1
1,1,222,3,62,2,17, man029.jpg, cue_2.jpg,1,0.7213,1
1,1,223,3,63,3,152, man202.jpg, cue_3.jpg,4,0.6909,1
1,1,224,3,64,2,86, man120.jpg, cue_2.jpg,1,0.6312,1
1,1,225,3,65,3,45, man067.jpg, cue_3.jpg,4,0.7006,1
1,1,226,3,66,3,200, man276.jpg, cue_3.jpg,4,0.7501,1
1,1,227,3,67,2,161, man213.jpg, cue_2.jpg,1,0.7187,1
1,1,228,3,68,4,23, man039.jpg, cue_4.jpg,2,0.818,1
1,1,229,3,69,3,137, man183.jpg, cue_3.jpg,4,0.7993,1
1,1,230,3,70,1,234, man327.jpg, cue_1.jpg,3,1.1649,1
1,1,231,3,71,2,126, man168.jpg, cue_2.jpg,1,0.7967,1
1,1,232,3,72,2,93, man128.jpg, cue_2.jpg,1,0.7307,1
1,1,233,3,73,3,192, man259.jpg, cue_3.jpg,4,1.0833,1
1,1,234,3,74,4,223, man309.jpg, cue_4.jpg,2,0.8146,1
1,1,235,3,75,2,89, man123.jpg, cue_2.jpg,1,1.0357,1
1,1,236,3,76,1,113, man155.jpg, cue_1.jpg,3,0.8009,1
1,1,237,3,77,2,71, man102.jpg, cue_2.jpg,1,1.4235,1
1,1,238,3,78,4,31, man050.jpg, cue_4.jpg,2,0.7243,1
1,1,239,3,79,4,204, man281.jpg, cue_4.jpg,2,0.7585,1
1,1,240,3,80,2,81, man113.jpg, cue_2.jpg,1,1.1756,1
1,1,241,4,1,1,188, man254.jpg, cue_1.jpg,3,1.5413,1
1,1,242,4,2,3,12, man022.jpg, cue_3.jpg,4,0.7563,1
1,1,243,4,3,2,178, man242.jpg, cue_2.jpg,1,0.7252,1
1,1,244,4,4,1,113, man155.jpg, cue_1.jpg,3,0.7754,1
1,1,245,4,5,4,23, man039.jpg, cue_4.jpg,2,0.663,1
1,1,246,4,6,3,218, man303.jpg, cue_3.jpg,4,0.6829,1
1,1,247,4,7,2,71, man102.jpg, cue_2.jpg,1,0.7829,1
1,1,248,4,8,1,13, man023.jpg, cue_1.jpg,3,0.7507,1
1,1,249,4,9,2,77, man109.jpg, cue_2.jpg,1,0.6553,1
1,1,250,4,10,3,137, man183.jpg, cue_3.jpg,4,0.7556,1
1,1,251,4,11,2,99, man135.jpg, cue_2.jpg,1,0.8534,1
1,1,252,4,12,1,103, man139.jpg, cue_1.jpg,3,0.7221,1
1,1,253,4,13,4,216, man301.jpg, cue_4.jpg,2,0.8189,1
1,1,254,4,14,2,62, man091.jpg, cue_2.jpg,1,0.7218,1
1,1,255,4,15,1,28, man045.jpg, cue_1.jpg,3,0.7564,1
1,1,256,4,16,1,186, man252.jpg, cue_1.jpg,3,0.7247,1
1,1,257,4,17,3,131, man174.jpg, cue_3.jpg,4,1.0155,1
1,1,258,4,18,4,217, man302.jpg, cue_4.jpg,2,1.037,1
1,1,259,4,19,1,202, man278.jpg, cue_1.jpg,3,1.5211,1
1,1,260,4,20,4,95, man130.jpg, cue_4.jpg,2,1.1064,1
1,1,261,4,21,1,26, man042.jpg, cue_1.jpg,3,0.8518,1
1,1,262,4,22,1,162, man215.jpg, cue_1.jpg,3,0.6406,1
1,1,263,4,23,2,86, man120.jpg, cue_2.jpg,1,0.6939,1
1,1,264,4,24,4,173, man236.jpg, cue_4.jpg,2,1.0642,1
1,1,265,4,25,2,81, man113.jpg, cue_2.jpg,1,0.6674,1
1,1,266,4,26,3,231, man321.jpg, cue_3.jpg,4,1.0721,1
1,1,267,4,27,1,84, man117.jpg, cue_1.jpg,3,1.2039,1
1,1,268,4,28,1,48, man071.jpg, cue_1.jpg,3,0.705,1
1,1,269,4,29,3,125, man167.jpg, cue_3.jpg,4,0.6597,1
1,1,270,4,30,4,141, man187.jpg, cue_4.jpg,2,0.7274,1
1,1,271,4,31,4,31, man050.jpg, cue_4.jpg,2,0.7119,1
1,1,272,4,32,4,20, man034.jpg, cue_4.jpg,2,0.7791,1
1,1,273,4,33,1,120, man162.jpg, cue_1.jpg,3,0.7787,1
1,1,274,4,34,3,73, man105.jpg, cue_3.jpg,4,0.9061,1
1,1,275,4,35,4,204, man281.jpg, cue_4.jpg,2,0.7885,1
1,1,276,4,36,3,165, man222.jpg, cue_3.jpg,4,0.724,1
1,1,277,4,37,4,69, man100.jpg, cue_4.jpg,2,0.7583,1
1,1,278,4,38,2,240, man336.jpg, cue_2.jpg,1,1.271,1
1,1,279,4,39,3,80, man112.jpg, cue_3.jpg,4,0.7215,1
1,1,280,4,40,4,127, man169.jpg, cue_4.jpg,2,0.8008,1
1,1,281,4,41,2,161, man213.jpg, cue_2.jpg,1,0.7865,1
1,1,282,4,42,3,37, man058.jpg, cue_3.jpg,4,0.8165,1
1,1,283,4,43,2,89, man123.jpg, cue_2.jpg,1,0.8781,1
1,1,284,4,44,3,45, man067.jpg, cue_3.jpg,4,0.8109,1
1,1,285,4,45,4,128, man170.jpg, cue_4.jpg,2,0.9689,1
1,1,286,4,46,3,169, man230.jpg, cue_3.jpg,4,0.7844,1
1,1,287,4,47,3,130, man172.jpg, cue_3.jpg,4,0.7354,1
1,1,288,4,48,1,90, man124.jpg, cue_1.jpg,3,1.0088,1
1,1,289,4,49,2,154, man205.jpg, cue_2.jpg,1,0.6958,1
1,1,290,4,50,4,5, man010.jpg, cue_4.jpg,2,0.7462,1
1,1,291,4,51,4,156, man207.jpg, cue_4.jpg,2,0.8108,1
1,1,292,4,52,4,223, man309.jpg, cue_4.jpg,2,0.7601,1
1,1,293,4,53,3,197, man271.jpg, cue_3.jpg,4,0.8406,1
1,1,294,4,54,2,160, man212.jpg, cue_2.jpg,1,0.8215,1
1,1,295,4,55,4,123, man165.jpg, cue_4.jpg,2,1.0754,1
1,1,296,4,56,3,118, man160.jpg, cue_3.jpg,4,0.9195,1
1,1,297,4,57,1,155, man206.jpg, cue_1.jpg,3,1.0726,1
1,1,298,4,58,3,192, man259.jpg, cue_3.jpg,4,0.9485,1
1,1,299,4,59,1,91, man125.jpg, cue_1.jpg,3,0.9723,1
1,1,300,4,60,2,151, man201.jpg, cue_2.jpg,1,0.9493,1
1,1,301,4,61,3,175, man238.jpg, cue_3.jpg,4,0.6847,1
1,1,302,4,62,1,189, man255.jpg, cue_1.jpg,3,0.7043,1
1,1,303,4,63,1,239, man333.jpg, cue_1.jpg,3,0.8189,1
1,1,304,4,64,2,3, man005.jpg, cue_2.jpg,1,0.72,1
1,1,305,4,65,1,38, man059.jpg, cue_1.jpg,3,0.7233,1
1,1,306,4,66,4,83, man115.jpg, cue_4.jpg,2,0.7409,1
1,1,307,4,67,4,102, man138.jpg, cue_4.jpg,2,0.6616,1
1,1,308,4,68,2,207, man284.jpg, cue_2.jpg,1,0.7139,1
1,1,309,4,69,4,19, man032.jpg, cue_4.jpg,2,0.7489,1
1,1,310,4,70,3,200, man276.jpg, cue_3.jpg,4,0.8132,1
1,1,311,4,71,2,126, man168.jpg, cue_2.jpg,1,0.6824,1
1,1,312,4,72,1,234, man327.jpg, cue_1.jpg,3,1.1992,1
1,1,313,4,73,2,17, man029.jpg, cue_2.jpg,1,0.7323,1
1,1,314,4,74,2,72, man104.jpg, cue_2.jpg,1,1.0371,1
1,1,315,4,75,2,74, man106.jpg, cue_2.jpg,1,0.6587,1
1,1,316,4,76,3,152, man202.jpg, cue_3.jpg,4,0.7109,1
1,1,317,4,77,4,43, man064.jpg, cue_4.jpg,2,1.0016,1
1,1,318,4,78,2,93, man128.jpg, cue_2.jpg,1,0.7515,1
1,1,319,4,79,3,68, man099.jpg, cue_3.jpg,4,0.6882,1
1,1,320,4,80,1,50, man073.jpg, cue_1.jpg,3,0.7716,1
2,1,1,1,1,4,144, man190.jpg, cue_4.jpg,1,1.5376,0
2,1,2,1,2,4,216, man301.jpg, cue_4.jpg,1,1.5269,0
2,1,3,1,3,1,35, man056.jpg, cue_1.jpg,2,1.1012,0
2,1,4,1,4,1,177, man241.jpg, cue_1.jpg,1,0.8702,1
2,1,5,1,5,3,70, man101.jpg, cue_3.jpg,2,1.2325,0
2,1,6,1,6,3,211, man295.jpg, cue_3.jpg,3,1.1247,1
2,1,7,1,7,4,9, man016.jpg, cue_4.jpg,1,1.3979,0
2,1,8,1,8,3,80, man112.jpg, cue_3.jpg,3,0.977,1
2,1,9,1,9,2,6, man013.jpg, cue_2.jpg,2,1.0486,1
2,1,10,1,10,2,189, man255.jpg, cue_2.jpg,2,0.9861,1
2,1,11,1,11,3,203, man279.jpg, cue_3.jpg,3,0.9787,1
2,1,12,1,12,4,195, man267.jpg, cue_4.jpg,4,1.2581,1
2,1,13,1,13,1,162, man215.jpg, cue_1.jpg,1,1.6043,1
2,1,14,1,14,4,218, man303.jpg, cue_4.jpg,3,1.3304,0
2,1,15,1,15,3,40, man061.jpg, cue_3.jpg,3,1.0387,1
2,1,16,1,16,2,11, man019.jpg, cue_2.jpg,2,1.0125,1
2,1,17,1,17,4,171, man233.jpg, cue_4.jpg,1,1.0984,0
2,1,18,1,18,4,182, man247.jpg, cue_4.jpg,4,1.4582,1
2,1,19,1,19,1,224, man310.jpg, cue_1.jpg,2,1.9406,0
2,1,20,1,20,1,149, man198.jpg, cue_1.jpg,1,1.402,1
2,1,21,1,21,1,32, man052.jpg, cue_1.jpg,3,2.2387,0
2,1,22,1,22,1,113, man155.jpg, cue_1.jpg,1,1.2214,1
2,1,23,1,23,2,199, man275.jpg, cue_2.jpg,2,1.1397,1
2,1,24,1,24,2,191, man258.jpg, cue_2.jpg,2,1.2205,1
2,1,25,1,25,1,75, man107.jpg, cue_1.jpg,1,1.0735,1
2,1,26,1,26,2,226, man312.jpg, cue_2.jpg,3,1.077,0
2,1,27,1,27,3,234, man327.jpg, cue_3.jpg,3,1.0539,1
2,1,28,1,28,4,41, man062.jpg, cue_4.jpg,3,0.8973,0
2,1,29,1,29,3,223, man309.jpg, cue_3.jpg,3,0.7852,1
2,1,30,1,30,3,107, man147.jpg, cue_3.jpg,1,1.6487,0
2,1,31,1,31,1,187, man253.jpg, cue_1.jpg,1,1.52,1
2,1,32,1,32,2,167, man228.jpg, cue_2.jpg,2,0.8172,1
2,1,33,1,33,1,92, man126.jpg, cue_1.jpg,1,1.2311,1
2,1,34,1,34,2,153, man203.jpg, cue_2.jpg,1,2.2516,0
2,1,35,1,35,2,72, man104.jpg, cue_2.jpg,1,0.6759,0
2,1,36,1,36,4,173, man236.jpg, cue_4.jpg,3,1.0061,0
2,1,37,1,37,3,186, man252.jpg, cue_3.jpg,3,0.9062,1
2,1,38,1,38,1,170, man231.jpg, cue_1.jpg,7,0,0
2,1,39,1,39,3,210, man291.jpg, cue_3.jpg,3,1.0903,1
2,1,40,1,40,1,22, man036.jpg, cue_1.jpg,1,1.43,1
2,1,41,1,41,4,123, man165.jpg, cue_4.jpg,1,1.0662,0
2,1,42,1,42,3,106, man145.jpg, cue_3.jpg,3,0.7717,1
2,1,43,1,43,3,109, man150.jpg, cue_3.jpg,3,0.8197,1
2,1,44,1,44,4,161, man213.jpg, cue_4.jpg,3,0.7858,0
2,1,45,1,45,3,17, man029.jpg, cue_3.jpg,3,1.0146,1
2,1,46,1,46,3,135, man180.jpg, cue_3.jpg,3,0.8761,1
2,1,47,1,47,1,3, man005.jpg, cue_1.jpg,1,1.5403,1
2,1,48,1,48,2,112, man154.jpg, cue_2.jpg,2,0.9194,1
2,1,49,1,49,1,155, man206.jpg, cue_1.jpg,3,0.8812,0
2,1,50,1,50,2,55, man079.jpg, cue_2.jpg,3,0.8339,0
2,1,51,1,51,1,138, man184.jpg, cue_1.jpg,3,0.7419,0
2,1,52,1,52,2,196, man268.jpg, cue_2.jpg,2,1.5492,1
2,1,53,1,53,4,100, man136.jpg, cue_4.jpg,3,0.8763,0
2,1,54,1,54,1,119, man161.jpg, cue_1.jpg,3,0.814,0
2,1,55,1,55,4,105, man144.jpg, cue_4.jpg,4,1.3463,1
2,1,56,1,56,4,230, man316.jpg, cue_4.jpg,3,1.0811,0
2,1,57,1,57,3,198, man273.jpg, cue_3.jpg,3,0.8661,1
2,1,58,1,58,2,179, man244.jpg, cue_2.jpg,2,1.2451,1
2,1,59,1,59,1,152, man202.jpg, cue_1.jpg,1,1.0971,1
2,1,60,1,60,1,160, man212.jpg, cue_1.jpg,3,0.8431,0
2,1,61,1,61,2,38, man059.jpg, cue_2.jpg,2,1.0384,1
2,1,62,1,62,1,67, man096.jpg, cue_1.jpg,1,0.9467,1
2,1,63,1,63,4,28, man045.jpg, cue_4.jpg,4,2.0274,1
2,1,64,1,64,4,15, man025.jpg, cue_4.jpg,3,0.8555,0
2,1,65,1,65,2,141, man187.jpg, cue_2.jpg,1,1.13,0
2,1,66,1,66,3,54, man078.jpg, cue_3.jpg,3,0.8964,1
2,1,67,1,67,4,48, man071.jpg, cue_4.jpg,1,1.1147,0
2,1,68,1,68,3,222, man307.jpg, cue_3.jpg,3,0.77,1
2,1,69,1,69,3,131, man174.jpg, cue_3.jpg,1,2.1943,0
2,1,70,1,70,3,238, man332.jpg, cue_3.jpg,3,0.8129,1
2,1,71,1,71,4,65, man094.jpg, cue_4.jpg,2,0.9065,0
2,1,72,1,72,4,79, man111.jpg, cue_4.jpg,2,1.3549,0
2,1,73,1,73,2,23, man039.jpg, cue_2.jpg,2,1.193,1
2,1,74,1,74,3,64, man093.jpg, cue_3.jpg,3,1.1428,1
2,1,75,1,75,2,33, man054.jpg, cue_2.jpg,2,1.3193,1
2,1,76,1,76,2,58, man085.jpg, cue_2.jpg,1,1.4562,0
2,1,77,1,77,4,69, man100.jpg, cue_4.jpg,4,1.0341,1
2,1,78,1,78,2,76, man108.jpg, cue_2.jpg,3,1.1027,0
2,1,79,1,79,2,2, man004.jpg, cue_2.jpg,3,1.0311,0
2,1,80,1,80,1,193, man260.jpg, cue_1.jpg,7,0,0
2,1,81,2,1,4,171, man233.jpg, cue_4.jpg,4,1.2244,1
2,1,82,2,2,2,189, man255.jpg, cue_2.jpg,2,0.7896,1
2,1,83,2,3,4,28, man045.jpg, cue_4.jpg,4,0.7404,1
2,1,84,2,4,1,22, man036.jpg, cue_1.jpg,2,1.4933,0
2,1,85,2,5,3,210, man291.jpg, cue_3.jpg,3,0.7819,1
2,1,86,2,6,2,38, man059.jpg, cue_2.jpg,2,0.7175,1
2,1,87,2,7,1,224, man310.jpg, cue_1.jpg,1,0.6861,1
2,1,88,2,8,4,230, man316.jpg, cue_4.jpg,4,0.6912,1
2,1,89,2,9,2,191, man258.jpg, cue_2.jpg,2,0.7267,1
2,1,90,2,10,1,170, man231.jpg, cue_1.jpg,1,0.9677,1
2,1,91,2,11,4,144, man190.jpg, cue_4.jpg,4,0.816,1
2,1,92,2,12,1,187, man253.jpg, cue_1.jpg,1,1.1334,1
2,1,93,2,13,1,119, man161.jpg, cue_1.jpg,1,0.8141,1
2,1,94,2,14,1,113, man155.jpg, cue_1.jpg,1,0.7001,1
2,1,95,2,15,4,161, man213.jpg, cue_4.jpg,4,0.8142,1
2,1,96,2,16,1,75, man107.jpg, cue_1.jpg,1,0.8124,1
2,1,97,2,17,1,160, man212.jpg, cue_1.jpg,1,1.1629,1
2,1,98,2,18,4,69, man100.jpg, cue_4.jpg,4,0.7783,1
2,1,99,2,19,2,23, man039.jpg, cue_2.jpg,2,0.713,1
2,1,100,2,20,2,226, man312.jpg, cue_2.jpg,2,0.652,1
2,1,101,2,21,2,6, man013.jpg, cue_2.jpg,2,0.6559,1
2,1,102,2,22,2,72, man104.jpg, cue_2.jpg,2,0.6939,1
2,1,103,2,23,4,218, man303.jpg, cue_4.jpg,4,1.8966,1
2,1,104,2,24,1,3, man005.jpg, cue_1.jpg,1,1.4005,1
2,1,105,2,25,2,179, man244.jpg, cue_2.jpg,2,0.7818,1
2,1,106,2,26,4,15, man025.jpg, cue_4.jpg,4,0.9095,1
2,1,107,2,27,3,107, man147.jpg, cue_3.jpg,3,0.6301,1
2,1,108,2,28,1,35, man056.jpg, cue_1.jpg,2,1.3571,0
2,1,109,2,29,1,177, man241.jpg, cue_1.jpg,1,0.7795,1
2,1,110,2,30,2,11, man019.jpg, cue_2.jpg,1,0.6189,0
2,1,111,2,31,4,48, man071.jpg, cue_4.jpg,4,0.8548,1
2,1,112,2,32,3,40, man061.jpg, cue_3.jpg,3,0.8185,1
2,1,113,2,33,4,105, man144.jpg, cue_4.jpg,4,0.8648,1
2,1,114,2,34,2,141, man187.jpg, cue_2.jpg,2,1.1477,1
2,1,115,2,35,1,152, man202.jpg, cue_1.jpg,1,0.7797,1
2,1,116,2,36,2,2, man004.jpg, cue_2.jpg,2,0.826,1
2,1,117,2,37,3,222, man307.jpg, cue_3.jpg,3,0.6006,1
2,1,118,2,38,3,70, man101.jpg, cue_3.jpg,3,1.0387,1
2,1,119,2,39,2,33, man054.jpg, cue_2.jpg,2,0.7079,1
2,1,120,2,40,1,155, man206.jpg, cue_1.jpg,1,0.9827,1
2,1,121,2,41,3,131, man174.jpg, cue_3.jpg,1,0.8764,0
2,1,122,2,42,3,234, man327.jpg, cue_3.jpg,3,0.7352,1
2,1,123,2,43,3,106, man145.jpg, cue_3.jpg,3,0.7528,1
2,1,124,2,44,4,216, man301.jpg, cue_4.jpg,4,0.7846,1
2,1,125,2,45,3,198, man273.jpg, cue_3.jpg,3,0.6556,1
2,1,126,2,46,3,17, man029.jpg, cue_3.jpg,3,1.1251,1
2,1,127,2,47,2,167, man228.jpg, cue_2.jpg,2,0.7574,1
2,1,128,2,48,3,203, man279.jpg, cue_3.jpg,3,0.7272,1
2,1,129,2,49,2,76, man108.jpg, cue_2.jpg,2,0.7447,1
2,1,130,2,50,3,211, man295.jpg, cue_3.jpg,3,0.889,1
2,1,131,2,51,1,149, man198.jpg, cue_1.jpg,1,1.4278,1
2,1,132,2,52,1,193, man260.jpg, cue_1.jpg,1,0.8083,1
2,1,133,2,53,3,135, man180.jpg, cue_3.jpg,3,0.7417,1
2,1,134,2,54,3,238, man332.jpg, cue_3.jpg,3,0.7271,1
2,1,135,2,55,4,41, man062.jpg, cue_4.jpg,4,0.9374,1
2,1,136,2,56,4,173, man236.jpg, cue_4.jpg,4,0.8503,1
2,1,137,2,57,4,65, man094.jpg, cue_4.jpg,4,0.8145,1
2,1,138,2,58,2,55, man079.jpg, cue_2.jpg,3,0.6851,0
2,1,139,2,59,2,112, man154.jpg, cue_2.jpg,2,1.4458,1
2,1,140,2,60,1,162, man215.jpg, cue_1.jpg,1,0.9694,1
2,1,141,2,61,4,182, man247.jpg, cue_4.jpg,4,1.1372,1
2,1,142,2,62,4,195, man267.jpg, cue_4.jpg,4,0.802,1
2,1,143,2,63,3,186, man252.jpg, cue_3.jpg,3,0.6886,1
2,1,144,2,64,1,92, man126.jpg, cue_1.jpg,1,0.8202,1
2,1,145,2,65,4,79, man111.jpg, cue_4.jpg,4,1.5847,1
2,1,146,2,66,3,109, man150.jpg, cue_3.jpg,3,0.688,1
2,1,147,2,67,3,64, man093.jpg, cue_3.jpg,3,1.2675,1
2,1,148,2,68,1,67, man096.jpg, cue_1.jpg,1,1.0387,1
2,1,149,2,69,4,100, man136.jpg, cue_4.jpg,4,0.6917,1
2,1,150,2,70,2,196, man268.jpg, cue_2.jpg,2,1.6873,1
2,1,151,2,71,3,54, man078.jpg, cue_3.jpg,3,1.1369,1
2,1,152,2,72,3,223, man309.jpg, cue_3.jpg,3,0.753,1
2,1,153,2,73,1,138, man184.jpg, cue_1.jpg,1,0.7546,1
2,1,154,2,74,3,80, man112.jpg, cue_3.jpg,3,0.787,1
2,1,155,2,75,4,9, man016.jpg, cue_4.jpg,4,0.9467,1
2,1,156,2,76,4,123, man165.jpg, cue_4.jpg,4,0.9195,1
2,1,157,2,77,2,199, man275.jpg, cue_2.jpg,2,0.7882,1
2,1,158,2,78,2,58, man085.jpg, cue_2.jpg,2,0.7236,1
2,1,159,2,79,1,32, man052.jpg, cue_1.jpg,3,1.0132,0
2,1,160,2,80,2,153, man203.jpg, cue_2.jpg,2,0.7695,1
2,1,161,3,1,1,160, man212.jpg, cue_1.jpg,1,0.8285,1
2,1,162,3,2,3,135, man180.jpg, cue_3.jpg,3,0.7144,1
2,1,163,3,3,4,218, man303.jpg, cue_4.jpg,4,1.0358,1
2,1,164,3,4,3,54, man078.jpg, cue_3.jpg,3,0.8967,1
2,1,165,3,5,3,17, man029.jpg, cue_3.jpg,3,0.9073,1
2,1,166,3,6,2,6, man013.jpg, cue_2.jpg,2,0.6448,1
2,1,167,3,7,2,226, man312.jpg, cue_2.jpg,2,0.6817,1
2,1,168,3,8,4,15, man025.jpg, cue_4.jpg,4,0.7491,1
2,1,169,3,9,2,153, man203.jpg, cue_2.jpg,2,0.6858,1
2,1,170,3,10,1,193, man260.jpg, cue_1.jpg,1,0.7541,1
2,1,171,3,11,3,64, man093.jpg, cue_3.jpg,3,0.787,1
2,1,172,3,12,3,70, man101.jpg, cue_3.jpg,3,1.1063,1
2,1,173,3,13,3,131, man174.jpg, cue_3.jpg,3,0.7565,1
2,1,174,3,14,1,170, man231.jpg, cue_1.jpg,1,0.7558,1
2,1,175,3,15,1,92, man126.jpg, cue_1.jpg,1,0.662,1
2,1,176,3,16,2,58, man085.jpg, cue_2.jpg,2,0.6816,1
2,1,177,3,17,3,234, man327.jpg, cue_3.jpg,3,0.718,1
2,1,178,3,18,3,80, man112.jpg, cue_3.jpg,3,0.9116,1
2,1,179,3,19,4,161, man213.jpg, cue_4.jpg,4,1.0342,1
2,1,180,3,20,2,33, man054.jpg, cue_2.jpg,2,0.6226,1
2,1,181,3,21,4,216, man301.jpg, cue_4.jpg,4,0.7575,1
2,1,182,3,22,1,35, man056.jpg, cue_1.jpg,1,0.8541,1
2,1,183,3,23,4,144, man190.jpg, cue_4.jpg,4,0.6584,1
2,1,184,3,24,4,100, man136.jpg, cue_4.jpg,4,0.711,1
2,1,185,3,25,1,152, man202.jpg, cue_1.jpg,1,0.6806,1
2,1,186,3,26,1,67, man096.jpg, cue_1.jpg,1,0.7645,1
2,1,187,3,27,4,79, man111.jpg, cue_4.jpg,4,1.0682,1
2,1,188,3,28,3,210, man291.jpg, cue_3.jpg,3,0.6865,1
2,1,189,3,29,4,123, man165.jpg, cue_4.jpg,3,0.8338,0
2,1,190,3,30,2,196, man268.jpg, cue_2.jpg,2,1.1567,1
2,1,191,3,31,4,65, man094.jpg, cue_4.jpg,4,0.7246,1
2,1,192,3,32,2,38, man059.jpg, cue_2.jpg,2,0.6629,1
2,1,193,3,33,3,107, man147.jpg, cue_3.jpg,3,0.7472,1
2,1,194,3,34,3,222, man307.jpg, cue_3.jpg,3,0.6323,1
2,1,195,3,35,3,106, man145.jpg, cue_3.jpg,3,0.6887,1
2,1,196,3,36,4,48, man071.jpg, cue_4.jpg,4,0.7889,1
2,1,197,3,37,1,155, man206.jpg, cue_1.jpg,1,0.755,1
2,1,198,3,38,2,23, man039.jpg, cue_2.jpg,2,0.7724,1
2,1,199,3,39,2,72, man104.jpg, cue_2.jpg,2,0.6602,1
2,1,200,3,40,1,187, man253.jpg, cue_1.jpg,1,0.7121,1
2,1,201,3,41,3,211, man295.jpg, cue_3.jpg,3,0.7471,1
2,1,202,3,42,3,203, man279.jpg, cue_3.jpg,3,0.7148,1
2,1,203,3,43,3,198, man273.jpg, cue_3.jpg,3,0.622,1
2,1,204,3,44,1,3, man005.jpg, cue_1.jpg,1,1.1404,1
2,1,205,3,45,1,138, man184.jpg, cue_1.jpg,1,0.629,1
2,1,206,3,46,4,173, man236.jpg, cue_4.jpg,4,1.0181,1
2,1,207,3,47,1,177, man241.jpg, cue_1.jpg,1,0.8303,1
2,1,208,3,48,2,189, man255.jpg, cue_2.jpg,4,1.1643,0
2,1,209,3,49,3,109, man150.jpg, cue_3.jpg,3,0.7686,1
2,1,210,3,50,4,9, man016.jpg, cue_4.jpg,4,1.2653,1
2,1,211,3,51,3,238, man332.jpg, cue_3.jpg,3,0.6848,1
2,1,212,3,52,2,167, man228.jpg, cue_2.jpg,2,1.1974,1
2,1,213,3,53,2,199, man275.jpg, cue_2.jpg,2,0.7184,1
2,1,214,3,54,2,112, man154.jpg, cue_2.jpg,2,0.8806,1
2,1,215,3,55,2,55, man079.jpg, cue_2.jpg,2,1.227,1
2,1,216,3,56,4,195, man267.jpg, cue_4.jpg,4,0.8403,1
2,1,217,3,57,4,69, man100.jpg, cue_4.jpg,4,0.9497,1
2,1,218,3,58,1,113, man155.jpg, cue_1.jpg,1,0.7496,1
2,1,219,3,59,3,186, man252.jpg, cue_3.jpg,3,0.879,1
2,1,220,3,60,1,162, man215.jpg, cue_1.jpg,1,1.2254,1
2,1,221,3,61,4,182, man247.jpg, cue_4.jpg,4,1.0285,1
2,1,222,3,62,3,40, man061.jpg, cue_3.jpg,3,0.6835,1
2,1,223,3,63,1,22, man036.jpg, cue_1.jpg,1,0.878,1
2,1,224,3,64,3,223, man309.jpg, cue_3.jpg,3,0.8423,1
2,1,225,3,65,1,149, man198.jpg, cue_1.jpg,1,0.9834,1
2,1,226,3,66,2,76, man108.jpg, cue_2.jpg,3,1.9817,0
2,1,227,3,67,4,105, man144.jpg, cue_4.jpg,4,0.865,1
2,1,228,3,68,1,32, man052.jpg, cue_1.jpg,1,1.2289,1
2,1,229,3,69,4,41, man062.jpg, cue_4.jpg,4,0.7761,1
2,1,230,3,70,1,119, man161.jpg, cue_1.jpg,1,0.809,1
2,1,231,3,71,2,2, man004.jpg, cue_2.jpg,2,0.8556,1
2,1,232,3,72,1,224, man310.jpg, cue_1.jpg,1,0.6272,1
2,1,233,3,73,2,191, man258.jpg, cue_2.jpg,2,0.8098,1
2,1,234,3,74,1,75, man107.jpg, cue_1.jpg,1,0.6323,1
2,1,235,3,75,4,171, man233.jpg, cue_4.jpg,4,0.8278,1
2,1,236,3,76,2,179, man244.jpg, cue_2.jpg,2,0.7466,1
2,1,237,3,77,2,141, man187.jpg, cue_2.jpg,2,0.9719,1
2,1,238,3,78,4,230, man316.jpg, cue_4.jpg,4,0.6273,1
2,1,239,3,79,4,28, man045.jpg, cue_4.jpg,4,0.7131,1
2,1,240,3,80,2,11, man019.jpg, cue_2.jpg,2,0.7792,1
2,1,241,4,1,2,196, man268.jpg, cue_2.jpg,2,0.7798,1
2,1,242,4,2,2,112, man154.jpg, cue_2.jpg,2,0.6528,1
2,1,243,4,3,1,177, man241.jpg, cue_1.jpg,1,0.7215,1
2,1,244,4,4,2,179, man244.jpg, cue_2.jpg,2,0.6757,1
2,1,245,4,5,1,160, man212.jpg, cue_1.jpg,1,0.8239,1
2,1,246,4,6,1,193, man260.jpg, cue_1.jpg,1,0.6614,1
2,1,247,4,7,3,198, man273.jpg, cue_3.jpg,3,0.6813,1
2,1,248,4,8,2,189, man255.jpg, cue_2.jpg,2,0.75,1
2,1,249,4,9,2,199, man275.jpg, cue_2.jpg,2,0.6537,1
2,1,250,4,10,4,171, man233.jpg, cue_4.jpg,4,0.8353,1
2,1,251,4,11,2,58, man085.jpg, cue_2.jpg,2,0.6244,1
2,1,252,4,12,1,35, man056.jpg, cue_1.jpg,1,0.9176,1
2,1,253,4,13,2,72, man104.jpg, cue_2.jpg,2,0.6716,1
2,1,254,4,14,3,222, man307.jpg, cue_3.jpg,3,0.6279,1
2,1,255,4,15,1,22, man036.jpg, cue_1.jpg,1,0.6821,1
2,1,256,4,16,2,33, man054.jpg, cue_2.jpg,2,0.6528,1
2,1,257,4,17,2,55, man079.jpg, cue_2.jpg,2,0.8021,1
2,1,258,4,18,2,23, man039.jpg, cue_2.jpg,2,0.6886,1
2,1,259,4,19,3,211, man295.jpg, cue_3.jpg,3,0.6916,1
2,1,260,4,20,3,106, man145.jpg, cue_3.jpg,3,0.6948,1
2,1,261,4,21,2,226, man312.jpg, cue_2.jpg,2,0.6506,1
2,1,262,4,22,1,224, man310.jpg, cue_1.jpg,1,0.6557,1
2,1,263,4,23,1,187, man253.jpg, cue_1.jpg,1,1.2842,1
2,1,264,4,24,4,218, man303.jpg, cue_4.jpg,4,0.7498,1
2,1,265,4,25,4,100, man136.jpg, cue_4.jpg,4,0.7185,1
2,1,266,4,26,4,182, man247.jpg, cue_4.jpg,4,0.6566,1
2,1,267,4,27,3,17, man029.jpg, cue_3.jpg,3,0.8545,1
2,1,268,4,28,4,65, man094.jpg, cue_4.jpg,4,0.6583,1
2,1,269,4,29,1,119, man161.jpg, cue_1.jpg,1,0.6795,1
2,1,270,4,30,4,41, man062.jpg, cue_4.jpg,4,0.6512,1
2,1,271,4,31,1,92, man126.jpg, cue_1.jpg,1,0.6867,1
2,1,272,4,32,3,64, man093.jpg, cue_3.jpg,3,1.0435,1
2,1,273,4,33,4,123, man165.jpg, cue_4.jpg,4,0.68,1
2,1,274,4,34,1,170, man231.jpg, cue_1.jpg,1,0.683,1
2,1,275,4,35,4,105, man144.jpg, cue_4.jpg,4,0.6549,1
2,1,276,4,36,3,107, man147.jpg, cue_3.jpg,3,0.6601,1
2,1,277,4,37,1,3, man005.jpg, cue_1.jpg,1,1.128,1
2,1,278,4,38,1,149, man198.jpg, cue_1.jpg,1,0.6813,1
2,1,279,4,39,4,230, man316.jpg, cue_4.jpg,4,0.6208,1
2,1,280,4,40,2,191, man258.jpg, cue_2.jpg,2,0.7551,1
2,1,281,4,41,4,173, man236.jpg, cue_4.jpg,4,0.6402,1
2,1,282,4,42,3,80, man112.jpg, cue_3.jpg,3,0.825,1
2,1,283,4,43,1,138, man184.jpg, cue_1.jpg,1,0.5026,1
2,1,284,4,44,4,144, man190.jpg, cue_4.jpg,4,0.6902,1
2,1,285,4,45,4,216, man301.jpg, cue_4.jpg,4,0.6279,1
2,1,286,4,46,3,54, man078.jpg, cue_3.jpg,3,0.8115,1
2,1,287,4,47,3,223, man309.jpg, cue_3.jpg,3,0.633,1
2,1,288,4,48,4,161, man213.jpg, cue_4.jpg,4,0.6859,1
2,1,289,4,49,1,152, man202.jpg, cue_1.jpg,1,0.6259,1
2,1,290,4,50,2,11, man019.jpg, cue_2.jpg,2,0.7926,1
2,1,291,4,51,1,162, man215.jpg, cue_1.jpg,1,1.176,1
2,1,292,4,52,3,70, man101.jpg, cue_3.jpg,3,0.8551,1
2,1,293,4,53,3,40, man061.jpg, cue_3.jpg,3,0.6272,1
2,1,294,4,54,2,167, man228.jpg, cue_2.jpg,2,0.6955,1
2,1,295,4,55,1,75, man107.jpg, cue_1.jpg,1,0.6519,1
2,1,296,4,56,3,135, man180.jpg, cue_3.jpg,3,0.657,1
2,1,297,4,57,4,48, man071.jpg, cue_4.jpg,4,0.6938,1
2,1,298,4,58,2,76, man108.jpg, cue_2.jpg,2,0.7769,1
2,1,299,4,59,2,153, man203.jpg, cue_2.jpg,2,0.6797,1
2,1,300,4,60,2,38, man059.jpg, cue_2.jpg,2,0.6516,1
2,1,301,4,61,3,210, man291.jpg, cue_3.jpg,3,0.6561,1
2,1,302,4,62,4,79, man111.jpg, cue_4.jpg,4,1.0779,1
2,1,303,4,63,3,186, man252.jpg, cue_3.jpg,3,0.68,1
2,1,304,4,64,4,9, man016.jpg, cue_4.jpg,4,0.7318,1
2,1,305,4,65,3,203, man279.jpg, cue_3.jpg,3,0.6852,1
2,1,306,4,66,2,141, man187.jpg, cue_2.jpg,2,1.1048,1
2,1,307,4,67,3,238, man332.jpg, cue_3.jpg,3,0.6424,1
2,1,308,4,68,3,109, man150.jpg, cue_3.jpg,3,0.6628,1
2,1,309,4,69,4,69, man100.jpg, cue_4.jpg,4,0.7158,1
2,1,310,4,70,2,2, man004.jpg, cue_2.jpg,2,0.7011,1
2,1,311,4,71,4,28, man045.jpg, cue_4.jpg,4,0.6401,1
2,1,312,4,72,1,113, man155.jpg, cue_1.jpg,1,0.6617,1
2,1,313,4,73,3,234, man327.jpg, cue_3.jpg,3,0.682,1
2,1,314,4,74,3,131, man174.jpg, cue_3.jpg,3,0.6859,1
2,1,315,4,75,2,6, man013.jpg, cue_2.jpg,2,0.5933,1
2,1,316,4,76,4,15, man025.jpg, cue_4.jpg,4,0.6483,1
2,1,317,4,77,4,195, man267.jpg, cue_4.jpg,4,0.7009,1
2,1,318,4,78,1,32, man052.jpg, cue_1.jpg,1,1.2316,1
2,1,319,4,79,1,67, man096.jpg, cue_1.jpg,1,0.6353,1
2,1,320,4,80,1,155, man206.jpg, cue_1.jpg,1,0.5924,1
3,1,1,1,1,2,219, man304.jpg, cue_2.jpg,3,1.508,0
3,1,2,1,2,3,190, man257.jpg, cue_3.jpg,3,1.8018,0
3,1,3,1,3,3,150, man199.jpg, cue_3.jpg,2,1.4776,1
3,1,4,1,4,2,148, man197.jpg, cue_2.jpg,2,1.9113,0
3,1,5,1,5,4,61, man089.jpg, cue_4.jpg,3,1.5494,1
3,1,6,1,6,1,109, man150.jpg, cue_1.jpg,7,0,0
3,1,7,1,7,3,140, man186.jpg, cue_3.jpg,2,1.241,1
3,1,8,1,8,3,81, man113.jpg, cue_3.jpg,2,1.5894,1
3,1,9,1,9,4,143, man189.jpg, cue_4.jpg,1,1.1714,0
3,1,10,1,10,4,60, man088.jpg, cue_4.jpg,1,1.7846,0
3,1,11,1,11,3,24, man040.jpg, cue_3.jpg,2,1.3799,1
3,1,12,1,12,2,147, man196.jpg, cue_2.jpg,4,1.865,0
3,1,13,1,13,3,215, man299.jpg, cue_3.jpg,3,1.6981,0
3,1,14,1,14,1,37, man058.jpg, cue_1.jpg,4,1.0247,1
3,1,15,1,15,4,93, man128.jpg, cue_4.jpg,1,1.2388,0
3,1,16,1,16,3,101, man137.jpg, cue_3.jpg,1,1.4326,0
3,1,17,1,17,4,6, man013.jpg, cue_4.jpg,3,1.2186,1
3,1,18,1,18,3,33, man054.jpg, cue_3.jpg,1,1.1996,0
3,1,19,1,19,3,40, man061.jpg, cue_3.jpg,4,1.3159,0
3,1,20,1,20,4,63, man092.jpg, cue_4.jpg,1,1.3942,0
3,1,21,1,21,1,220, man305.jpg, cue_1.jpg,4,1.1659,1
3,1,22,1,22,2,204, man281.jpg, cue_2.jpg,1,0.9723,1
3,1,23,1,23,4,50, man073.jpg, cue_4.jpg,3,0.8535,1
3,1,24,1,24,4,156, man207.jpg, cue_4.jpg,2,1.3297,0
3,1,25,1,25,1,15, man025.jpg, cue_1.jpg,4,1.2792,1
3,1,26,1,26,2,154, man205.jpg, cue_2.jpg,4,1.3542,0
3,1,27,1,27,2,59, man086.jpg, cue_2.jpg,4,1.6556,0
3,1,28,1,28,3,43, man064.jpg, cue_3.jpg,4,1.7688,0
3,1,29,1,29,2,52, man076.jpg, cue_2.jpg,1,1.3488,1
3,1,30,1,30,3,56, man082.jpg, cue_3.jpg,4,1.3878,0
3,1,31,1,31,2,175, man238.jpg, cue_2.jpg,1,1.0967,1
3,1,32,1,32,3,3, man005.jpg, cue_3.jpg,4,1.4818,0
3,1,33,1,33,4,53, man077.jpg, cue_4.jpg,3,1.3468,1
3,1,34,1,34,1,110, man152.jpg, cue_1.jpg,4,1.6104,1
3,1,35,1,35,1,51, man075.jpg, cue_1.jpg,1,1.367,0
3,1,36,1,36,2,72, man104.jpg, cue_2.jpg,4,1.5402,0
3,1,37,1,37,1,91, man125.jpg, cue_1.jpg,4,1.9939,1
3,1,38,1,38,1,12, man022.jpg, cue_1.jpg,4,1.2867,1
3,1,39,1,39,2,23, man039.jpg, cue_2.jpg,1,1.0089,1
3,1,40,1,40,1,230, man316.jpg, cue_1.jpg,4,1.1752,1
3,1,41,1,41,3,221, man306.jpg, cue_3.jpg,2,1.1259,1
3,1,42,1,42,1,114, man156.jpg, cue_1.jpg,2,0.7274,0
3,1,43,1,43,4,118, man160.jpg, cue_4.jpg,3,1.0226,1
3,1,44,1,44,4,177, man241.jpg, cue_4.jpg,3,0.9634,1
3,1,45,1,45,1,42, man063.jpg, cue_1.jpg,2,0.971,0
3,1,46,1,46,2,228, man314.jpg, cue_2.jpg,4,1.033,0
3,1,47,1,47,2,152, man202.jpg, cue_2.jpg,4,0.9324,0
3,1,48,1,48,3,131, man174.jpg, cue_3.jpg,4,1.7954,0
3,1,49,1,49,4,153, man203.jpg, cue_4.jpg,2,1.0543,0
3,1,50,1,50,2,167, man228.jpg, cue_2.jpg,3,1.3844,0
3,1,51,1,51,4,31, man050.jpg, cue_4.jpg,1,1.044,0
3,1,52,1,52,2,30, man048.jpg, cue_2.jpg,3,1.8855,0
3,1,53,1,53,1,234, man327.jpg, cue_1.jpg,3,1.8125,0
3,1,54,1,54,4,20, man034.jpg, cue_4.jpg,3,1.2622,1
3,1,55,1,55,1,112, man154.jpg, cue_1.jpg,2,1.0656,0
3,1,56,1,56,3,229, man315.jpg, cue_3.jpg,4,1.2355,0
3,1,57,1,57,3,104, man141.jpg, cue_3.jpg,3,1.0297,0
3,1,58,1,58,4,16, man027.jpg, cue_4.jpg,3,1.0082,1
3,1,59,1,59,4,164, man221.jpg, cue_4.jpg,3,1.7506,1
3,1,60,1,60,2,45, man067.jpg, cue_2.jpg,2,1.1796,0
3,1,61,1,61,1,176, man240.jpg, cue_1.jpg,1,1.3452,0
3,1,62,1,62,1,159, man210.jpg, cue_1.jpg,4,1.1501,1
3,1,63,1,63,1,99, man135.jpg, cue_1.jpg,2,1.2947,0
3,1,64,1,64,2,145, man191.jpg, cue_2.jpg,1,1.2142,1
3,1,65,1,65,3,194, man262.jpg, cue_3.jpg,4,1.0677,0
3,1,66,1,66,1,136, man182.jpg, cue_1.jpg,4,1.0279,1
3,1,67,1,67,2,39, man060.jpg, cue_2.jpg,4,0.778,0
3,1,68,1,68,4,32, man052.jpg, cue_4.jpg,1,1.1192,0
3,1,69,1,69,1,2, man004.jpg, cue_1.jpg,4,1.0464,1
3,1,70,1,70,1,235, man328.jpg, cue_1.jpg,3,1.2099,0
3,1,71,1,71,2,203, man279.jpg, cue_2.jpg,1,1.2283,1
3,1,72,1,72,4,28, man045.jpg, cue_4.jpg,4,0.9379,0
3,1,73,1,73,3,135, man180.jpg, cue_3.jpg,2,1.3854,1
3,1,74,1,74,4,69, man100.jpg, cue_4.jpg,3,1.4872,1
3,1,75,1,75,2,100, man136.jpg, cue_2.jpg,3,1.1371,0
3,1,76,1,76,3,166, man223.jpg, cue_3.jpg,1,0.6474,0
3,1,77,1,77,4,106, man145.jpg, cue_4.jpg,1,0.8355,0
3,1,78,1,78,2,169, man230.jpg, cue_2.jpg,4,1.4459,0
3,1,79,1,79,3,22, man036.jpg, cue_3.jpg,4,1.1352,0
3,1,80,1,80,1,205, man282.jpg, cue_1.jpg,3,1.1417,0
3,1,81,2,1,1,99, man135.jpg, cue_1.jpg,4,1.2496,1
3,1,82,2,2,2,154, man205.jpg, cue_2.jpg,1,0.9261,1
3,1,83,2,3,1,109, man150.jpg, cue_1.jpg,4,0.9504,1
3,1,84,2,4,2,204, man281.jpg, cue_2.jpg,1,0.7674,1
3,1,85,2,5,1,114, man156.jpg, cue_1.jpg,4,0.8796,1
3,1,86,2,6,3,43, man064.jpg, cue_3.jpg,2,1.1618,1
3,1,87,2,7,3,215, man299.jpg, cue_3.jpg,2,1.0012,1
3,1,88,2,8,2,100, man136.jpg, cue_2.jpg,1,1.3286,1
3,1,89,2,9,1,12, man022.jpg, cue_1.jpg,1,0.968,0
3,1,90,2,10,3,131, man174.jpg, cue_3.jpg,2,1.398,1
3,1,91,2,11,1,2, man004.jpg, cue_1.jpg,4,1.067,1
3,1,92,2,12,2,145, man191.jpg, cue_2.jpg,1,1.1021,1
3,1,93,2,13,3,22, man036.jpg, cue_3.jpg,2,0.8005,1
3,1,94,2,14,3,166, man223.jpg, cue_3.jpg,2,0.8623,1
3,1,95,2,15,2,147, man196.jpg, cue_2.jpg,1,0.8412,1
3,1,96,2,16,3,40, man061.jpg, cue_3.jpg,2,0.903,1
3,1,97,2,17,2,169, man230.jpg, cue_2.jpg,1,0.9774,1
3,1,98,2,18,1,112, man154.jpg, cue_1.jpg,4,1.3527,1
3,1,99,2,19,2,152, man202.jpg, cue_2.jpg,4,0.8483,0
3,1,100,2,20,1,42, man063.jpg, cue_1.jpg,4,0.9943,1
3,1,101,2,21,2,175, man238.jpg, cue_2.jpg,1,0.7451,1
3,1,102,2,22,4,32, man052.jpg, cue_4.jpg,2,0.938,0
3,1,103,2,23,4,50, man073.jpg, cue_4.jpg,3,0.8401,1
3,1,104,2,24,1,235, man328.jpg, cue_1.jpg,1,0.8543,0
3,1,105,2,25,4,156, man207.jpg, cue_4.jpg,3,0.9505,1
3,1,106,2,26,1,205, man282.jpg, cue_1.jpg,4,0.9446,1
3,1,107,2,27,4,63, man092.jpg, cue_4.jpg,3,0.9844,1
3,1,108,2,28,3,140, man186.jpg, cue_3.jpg,2,0.9758,1
3,1,109,2,29,4,20, man034.jpg, cue_4.jpg,3,0.8233,1
3,1,110,2,30,3,3, man005.jpg, cue_3.jpg,2,0.7251,1
3,1,111,2,31,2,45, man067.jpg, cue_2.jpg,1,0.9188,1
3,1,112,2,32,2,59, man086.jpg, cue_2.jpg,1,0.7212,1
3,1,113,2,33,1,15, man025.jpg, cue_1.jpg,4,0.8026,1
3,1,114,2,34,1,159, man210.jpg, cue_1.jpg,4,0.8169,1
3,1,115,2,35,1,91, man125.jpg, cue_1.jpg,4,1.1667,1
3,1,116,2,36,1,176, man240.jpg, cue_1.jpg,4,1.0063,1
3,1,117,2,37,3,221, man306.jpg, cue_3.jpg,2,0.7398,1
3,1,118,2,38,1,136, man182.jpg, cue_1.jpg,4,0.9181,1
3,1,119,2,39,4,60, man088.jpg, cue_4.jpg,2,1.1035,0
3,1,120,2,40,2,203, man279.jpg, cue_2.jpg,1,0.759,1
3,1,121,2,41,4,143, man189.jpg, cue_4.jpg,3,1.0479,1
3,1,122,2,42,3,24, man040.jpg, cue_3.jpg,2,0.6992,1
3,1,123,2,43,2,30, man048.jpg, cue_2.jpg,1,0.8782,1
3,1,124,2,44,4,118, man160.jpg, cue_4.jpg,3,1.1294,1
3,1,125,2,45,3,190, man257.jpg, cue_3.jpg,1,1.0974,0
3,1,126,2,46,1,51, man075.jpg, cue_1.jpg,4,1.0581,1
3,1,127,2,47,3,104, man141.jpg, cue_3.jpg,2,0.7907,1
3,1,128,2,48,3,135, man180.jpg, cue_3.jpg,2,0.8054,1
3,1,129,2,49,1,37, man058.jpg, cue_1.jpg,4,0.8034,1
3,1,130,2,50,1,230, man316.jpg, cue_1.jpg,4,0.7542,1
3,1,131,2,51,3,150, man199.jpg, cue_3.jpg,2,1.394,1
3,1,132,2,52,3,229, man315.jpg, cue_3.jpg,2,0.7597,1
3,1,133,2,53,1,110, man152.jpg, cue_1.jpg,4,0.7436,1
3,1,134,2,54,2,219, man304.jpg, cue_2.jpg,1,0.7448,1
3,1,135,2,55,4,16, man027.jpg, cue_4.jpg,3,0.7454,1
3,1,136,2,56,3,81, man113.jpg, cue_3.jpg,2,0.8745,1
3,1,137,2,57,3,33, man054.jpg, cue_3.jpg,2,0.869,1
3,1,138,2,58,4,61, man089.jpg, cue_4.jpg,2,0.9454,0
3,1,139,2,59,2,148, man197.jpg, cue_2.jpg,1,0.7033,1
3,1,140,2,60,3,101, man137.jpg, cue_3.jpg,2,0.9148,1
3,1,141,2,61,2,52, man076.jpg, cue_2.jpg,1,0.8121,1
3,1,142,2,62,1,234, man327.jpg, cue_1.jpg,4,0.9378,1
3,1,143,2,63,1,220, man305.jpg, cue_1.jpg,4,0.7392,1
3,1,144,2,64,4,106, man145.jpg, cue_4.jpg,1,0.7242,0
3,1,145,2,65,4,31, man050.jpg, cue_4.jpg,3,1.7084,1
3,1,146,2,66,4,53, man077.jpg, cue_4.jpg,3,0.7255,1
3,1,147,2,67,4,28, man045.jpg, cue_4.jpg,3,1.0151,1
3,1,148,2,68,3,194, man262.jpg, cue_3.jpg,3,1.0042,0
3,1,149,2,69,4,93, man128.jpg, cue_4.jpg,3,0.825,1
3,1,150,2,70,2,72, man104.jpg, cue_2.jpg,1,0.7591,1
3,1,151,2,71,4,6, man013.jpg, cue_4.jpg,3,0.7598,1
3,1,152,2,72,2,228, man314.jpg, cue_2.jpg,1,1.4162,1
3,1,153,2,73,2,167, man228.jpg, cue_2.jpg,1,0.9088,1
3,1,154,2,74,2,23, man039.jpg, cue_2.jpg,1,0.8871,1
3,1,155,2,75,2,39, man060.jpg, cue_2.jpg,1,1.3299,1
3,1,156,2,76,4,164, man221.jpg, cue_4.jpg,3,0.8257,1
3,1,157,2,77,4,153, man203.jpg, cue_4.jpg,1,1.3364,0
3,1,158,2,78,3,56, man082.jpg, cue_3.jpg,2,1.0938,1
3,1,159,2,79,4,177, man241.jpg, cue_4.jpg,2,1.3042,0
3,1,160,2,80,4,69, man100.jpg, cue_4.jpg,3,0.9357,1
3,1,161,3,1,3,81, man113.jpg, cue_3.jpg,2,1.0262,1
3,1,162,3,2,2,39, man060.jpg, cue_2.jpg,1,0.852,1
3,1,163,3,3,2,30, man048.jpg, cue_2.jpg,1,0.6247,1
3,1,164,3,4,4,28, man045.jpg, cue_4.jpg,3,1.5277,1
3,1,165,3,5,3,56, man082.jpg, cue_3.jpg,2,0.6637,1
3,1,166,3,6,4,63, man092.jpg, cue_4.jpg,3,0.6847,1
3,1,167,3,7,1,110, man152.jpg, cue_1.jpg,4,0.7355,1
3,1,168,3,8,3,166, man223.jpg, cue_3.jpg,2,0.6557,1
3,1,169,3,9,2,100, man136.jpg, cue_2.jpg,1,1.0615,1
3,1,170,3,10,4,143, man189.jpg, cue_4.jpg,3,0.7119,1
3,1,171,3,11,2,175, man238.jpg, cue_2.jpg,1,0.7786,1
3,1,172,3,12,3,33, man054.jpg, cue_3.jpg,2,0.7778,1
3,1,173,3,13,3,24, man040.jpg, cue_3.jpg,2,0.6498,1
3,1,174,3,14,3,140, man186.jpg, cue_3.jpg,2,0.7023,1
3,1,175,3,15,3,104, man141.jpg, cue_3.jpg,2,0.6406,1
3,1,176,3,16,4,156, man207.jpg, cue_4.jpg,3,1.1422,1
3,1,177,3,17,1,42, man063.jpg, cue_1.jpg,2,1.4459,0
3,1,178,3,18,4,69, man100.jpg, cue_4.jpg,3,0.8469,1
3,1,179,3,19,1,235, man328.jpg, cue_1.jpg,4,0.8435,1
3,1,180,3,20,1,112, man154.jpg, cue_1.jpg,4,1.0322,1
3,1,181,3,21,4,153, man203.jpg, cue_4.jpg,3,0.7808,1
3,1,182,3,22,3,190, man257.jpg, cue_3.jpg,2,0.8123,1
3,1,183,3,23,4,50, man073.jpg, cue_4.jpg,3,0.6824,1
3,1,184,3,24,1,51, man075.jpg, cue_1.jpg,4,0.7655,1
3,1,185,3,25,1,91, man125.jpg, cue_1.jpg,4,1.0695,1
3,1,186,3,26,1,136, man182.jpg, cue_1.jpg,4,0.7841,1
3,1,187,3,27,4,32, man052.jpg, cue_4.jpg,3,0.8959,1
3,1,188,3,28,2,145, man191.jpg, cue_2.jpg,1,0.7458,1
3,1,189,3,29,4,61, man089.jpg, cue_4.jpg,3,1.1943,1
3,1,190,3,30,4,6, man013.jpg, cue_4.jpg,3,0.6489,1
3,1,191,3,31,4,93, man128.jpg, cue_4.jpg,3,0.6374,1
3,1,192,3,32,3,194, man262.jpg, cue_3.jpg,2,0.7862,1
3,1,193,3,33,2,72, man104.jpg, cue_2.jpg,1,0.6418,1
3,1,194,3,34,1,99, man135.jpg, cue_1.jpg,4,1.3995,1
3,1,195,3,35,4,106, man145.jpg, cue_4.jpg,3,0.761,1
3,1,196,3,36,2,219, man304.jpg, cue_2.jpg,1,0.7484,1
3,1,197,3,37,2,147, man196.jpg, cue_2.jpg,1,0.8283,1
3,1,198,3,38,3,221, man306.jpg, cue_3.jpg,2,0.6009,1
3,1,199,3,39,2,154, man205.jpg, cue_2.jpg,1,0.6717,1
3,1,200,3,40,3,150, man199.jpg, cue_3.jpg,2,0.6278,1
3,1,201,3,41,4,31, man050.jpg, cue_4.jpg,3,0.6487,1
3,1,202,3,42,3,43, man064.jpg, cue_3.jpg,2,0.6217,1
3,1,203,3,43,1,159, man210.jpg, cue_1.jpg,4,0.628,1
3,1,204,3,44,4,53, man077.jpg, cue_4.jpg,3,0.6508,1
3,1,205,3,45,3,215, man299.jpg, cue_3.jpg,2,0.6695,1
3,1,206,3,46,2,148, man197.jpg, cue_2.jpg,1,0.6273,1
3,1,207,3,47,1,109, man150.jpg, cue_1.jpg,4,0.777,1
3,1,208,3,48,2,228, man314.jpg, cue_2.jpg,1,0.9043,1
3,1,209,3,49,3,3, man005.jpg, cue_3.jpg,2,0.6744,1
3,1,210,3,50,3,22, man036.jpg, cue_3.jpg,2,0.7586,1
3,1,211,3,51,2,169, man230.jpg, cue_2.jpg,1,0.6946,1
3,1,212,3,52,1,15, man025.jpg, cue_1.jpg,4,0.7458,1
3,1,213,3,53,2,203, man279.jpg, cue_2.jpg,1,0.6191,1
3,1,214,3,54,1,205, man282.jpg, cue_1.jpg,4,1.1206,1
3,1,215,3,55,1,220, man305.jpg, cue_1.jpg,4,0.7863,1
3,1,216,3,56,2,204, man281.jpg, cue_2.jpg,1,0.6897,1
3,1,217,3,57,1,2, man004.jpg, cue_1.jpg,4,0.853,1
3,1,218,3,58,2,167, man228.jpg, cue_2.jpg,1,1.0095,1
3,1,219,3,59,1,234, man327.jpg, cue_1.jpg,4,0.6796,1
3,1,220,3,60,4,20, man034.jpg, cue_4.jpg,3,1.1307,1
3,1,221,3,61,2,52, man076.jpg, cue_2.jpg,1,0.6518,1
3,1,222,3,62,2,45, man067.jpg, cue_2.jpg,1,0.7527,1
3,1,223,3,63,1,114, man156.jpg, cue_1.jpg,4,0.721,1
3,1,224,3,64,4,118, man160.jpg, cue_4.jpg,3,0.7235,1
3,1,225,3,65,2,23, man039.jpg, cue_2.jpg,1,0.7895,1
3,1,226,3,66,2,152, man202.jpg, cue_2.jpg,4,0.8205,0
3,1,227,3,67,1,37, man058.jpg, cue_1.jpg,4,0.7123,1
3,1,228,3,68,4,16, man027.jpg, cue_4.jpg,3,0.7469,1
3,1,229,3,69,3,131, man174.jpg, cue_3.jpg,2,1.1957,1
3,1,230,3,70,2,59, man086.jpg, cue_2.jpg,1,0.6504,1
3,1,231,3,71,3,229, man315.jpg, cue_3.jpg,2,0.8155,1
3,1,232,3,72,3,101, man137.jpg, cue_3.jpg,2,0.813,1
3,1,233,3,73,1,176, man240.jpg, cue_1.jpg,4,1.1315,1
3,1,234,3,74,4,177, man241.jpg, cue_4.jpg,4,1.4523,0
3,1,235,3,75,3,135, man180.jpg, cue_3.jpg,2,0.725,1
3,1,236,3,76,1,230, man316.jpg, cue_1.jpg,4,0.7593,1
3,1,237,3,77,4,164, man221.jpg, cue_4.jpg,3,0.8232,1
3,1,238,3,78,4,60, man088.jpg, cue_4.jpg,3,1.1255,1
3,1,239,3,79,1,12, man022.jpg, cue_1.jpg,4,0.9827,1
3,1,240,3,80,3,40, man061.jpg, cue_3.jpg,2,1.0053,1
3,1,241,4,1,3,194, man262.jpg, cue_3.jpg,2,1.0442,1
3,1,242,4,2,3,33, man054.jpg, cue_3.jpg,2,0.6496,1
3,1,243,4,3,3,22, man036.jpg, cue_3.jpg,2,0.6387,1
3,1,244,4,4,3,43, man064.jpg, cue_3.jpg,2,0.6119,1
3,1,245,4,5,3,81, man113.jpg, cue_3.jpg,2,0.6505,1
3,1,246,4,6,1,91, man125.jpg, cue_1.jpg,4,0.7829,1
3,1,247,4,7,1,234, man327.jpg, cue_1.jpg,4,0.7343,1
3,1,248,4,8,1,51, man075.jpg, cue_1.jpg,4,0.6553,1
3,1,249,4,9,2,72, man104.jpg, cue_2.jpg,1,0.6605,1
3,1,250,4,10,3,166, man223.jpg, cue_3.jpg,2,0.903,1
3,1,251,4,11,1,176, man240.jpg, cue_1.jpg,4,0.7236,1
3,1,252,4,12,4,53, man077.jpg, cue_4.jpg,3,0.6448,1
3,1,253,4,13,4,164, man221.jpg, cue_4.jpg,3,0.681,1
3,1,254,4,14,3,3, man005.jpg, cue_3.jpg,2,0.6369,1
3,1,255,4,15,4,69, man100.jpg, cue_4.jpg,3,0.9147,1
3,1,256,4,16,2,23, man039.jpg, cue_2.jpg,1,0.7954,1
3,1,257,4,17,3,131, man174.jpg, cue_3.jpg,2,1.0497,1
3,1,258,4,18,3,24, man040.jpg, cue_3.jpg,2,0.6372,1
3,1,259,4,19,4,28, man045.jpg, cue_4.jpg,3,0.7869,1
3,1,260,4,20,1,99, man135.jpg, cue_1.jpg,4,0.8976,1
3,1,261,4,21,2,219, man304.jpg, cue_2.jpg,1,0.7485,1
3,1,262,4,22,4,156, man207.jpg, cue_4.jpg,3,0.6848,1
3,1,263,4,23,2,148, man197.jpg, cue_2.jpg,1,0.6886,1
3,1,264,4,24,4,6, man013.jpg, cue_4.jpg,3,0.6602,1
3,1,265,4,25,2,175, man238.jpg, cue_2.jpg,1,0.9677,1
3,1,266,4,26,2,45, man067.jpg, cue_2.jpg,1,0.8472,1
3,1,267,4,27,4,106, man145.jpg, cue_4.jpg,3,0.7643,1
3,1,268,4,28,1,112, man154.jpg, cue_1.jpg,4,1.0352,1
3,1,269,4,29,1,114, man156.jpg, cue_1.jpg,4,0.7207,1
3,1,270,4,30,2,169, man230.jpg, cue_2.jpg,1,0.7069,1
3,1,271,4,31,2,100, man136.jpg, cue_2.jpg,1,0.9816,1
3,1,272,4,32,4,143, man189.jpg, cue_4.jpg,3,0.6507,1
3,1,273,4,33,4,20, man034.jpg, cue_4.jpg,3,0.8179,1
3,1,274,4,34,4,31, man050.jpg, cue_4.jpg,3,0.8478,1
3,1,275,4,35,2,145, man191.jpg, cue_2.jpg,1,0.7319,1
3,1,276,4,36,2,152, man202.jpg, cue_2.jpg,4,1.4211,0
3,1,277,4,37,1,235, man328.jpg, cue_1.jpg,4,0.8078,1
3,1,278,4,38,4,118, man160.jpg, cue_4.jpg,3,0.6781,1
3,1,279,4,39,4,61, man089.jpg, cue_4.jpg,3,0.6815,1
3,1,280,4,40,3,215, man299.jpg, cue_3.jpg,2,1.1647,1
3,1,281,4,41,1,12, man022.jpg, cue_1.jpg,4,0.7959,1
3,1,282,4,42,4,50, man073.jpg, cue_4.jpg,3,0.6826,1
3,1,283,4,43,1,230, man316.jpg, cue_1.jpg,4,0.7177,1
3,1,284,4,44,2,52, man076.jpg, cue_2.jpg,1,0.6563,1
3,1,285,4,45,3,101, man137.jpg, cue_3.jpg,2,0.6603,1
3,1,286,4,46,2,203, man279.jpg, cue_2.jpg,1,0.681,1
3,1,287,4,47,2,30, man048.jpg, cue_2.jpg,1,0.7166,1
3,1,288,4,48,2,204, man281.jpg, cue_2.jpg,1,0.6557,1
3,1,289,4,49,3,104, man141.jpg, cue_3.jpg,2,0.6604,1
3,1,290,4,50,4,60, man088.jpg, cue_4.jpg,3,0.6811,1
3,1,291,4,51,1,220, man305.jpg, cue_1.jpg,4,0.7,1
3,1,292,4,52,1,2, man004.jpg, cue_1.jpg,4,1.0068,1
3,1,293,4,53,2,167, man228.jpg, cue_2.jpg,1,0.6922,1
3,1,294,4,54,2,59, man086.jpg, cue_2.jpg,1,0.6006,1
3,1,295,4,55,1,42, man063.jpg, cue_1.jpg,4,0.9437,1
3,1,296,4,56,4,177, man241.jpg, cue_4.jpg,3,0.647,1
3,1,297,4,57,3,221, man306.jpg, cue_3.jpg,2,0.7491,1
3,1,298,4,58,4,93, man128.jpg, cue_4.jpg,3,0.6539,1
3,1,299,4,59,1,37, man058.jpg, cue_1.jpg,4,0.8021,1
3,1,300,4,60,3,229, man315.jpg, cue_3.jpg,2,0.689,1
3,1,301,4,61,3,150, man199.jpg, cue_3.jpg,2,0.725,1
3,1,302,4,62,4,63, man092.jpg, cue_4.jpg,3,0.6621,1
3,1,303,4,63,4,16, man027.jpg, cue_4.jpg,3,0.8105,1
3,1,304,4,64,3,190, man257.jpg, cue_3.jpg,2,0.6812,1
3,1,305,4,65,4,32, man052.jpg, cue_4.jpg,3,1.4201,1
3,1,306,4,66,1,110, man152.jpg, cue_1.jpg,4,0.6896,1
3,1,307,4,67,3,140, man186.jpg, cue_3.jpg,2,0.6291,1
3,1,308,4,68,1,205, man282.jpg, cue_1.jpg,4,0.7138,1
3,1,309,4,69,3,56, man082.jpg, cue_3.jpg,2,0.6365,1
3,1,310,4,70,2,39, man060.jpg, cue_2.jpg,1,0.8974,1
3,1,311,4,71,2,228, man314.jpg, cue_2.jpg,1,0.7475,1
3,1,312,4,72,2,154, man205.jpg, cue_2.jpg,1,0.6684,1
3,1,313,4,73,1,136, man182.jpg, cue_1.jpg,4,0.7524,1
3,1,314,4,74,3,135, man180.jpg, cue_3.jpg,2,0.8171,1
3,1,315,4,75,1,15, man025.jpg, cue_1.jpg,4,0.7502,1
3,1,316,4,76,3,40, man061.jpg, cue_3.jpg,2,0.6558,1
3,1,317,4,77,4,153, man203.jpg, cue_4.jpg,3,0.7244,1
3,1,318,4,78,1,109, man150.jpg, cue_1.jpg,4,0.6769,1
3,1,319,4,79,1,159, man210.jpg, cue_1.jpg,4,0.6335,1
3,1,320,4,80,2,147, man196.jpg, cue_2.jpg,1,0.7513,1
4,1,1,1,1,1,105, man144.jpg, cue_1.jpg,7,0,0
4,1,2,1,2,3,77, man109.jpg, cue_3.jpg,2,2.0033,0
4,1,3,1,3,3,123, man165.jpg, cue_3.jpg,1,1.8277,0
4,1,4,1,4,4,147, man196.jpg, cue_4.jpg,2,1.5197,0
4,1,5,1,5,2,24, man040.jpg, cue_2.jpg,2,1.3493,1
4,1,6,1,6,3,99, man135.jpg, cue_3.jpg,7,0,0
4,1,7,1,7,1,157, man208.jpg, cue_1.jpg,1,1.3401,1
4,1,8,1,8,4,30, man048.jpg, cue_4.jpg,3,1.4609,1
4,1,9,1,9,4,216, man301.jpg, cue_4.jpg,4,1.2391,0
4,1,10,1,10,4,227, man313.jpg, cue_4.jpg,1,1.1621,0
4,1,11,1,11,3,164, man221.jpg, cue_3.jpg,2,1.0405,0
4,1,12,1,12,3,165, man222.jpg, cue_3.jpg,2,1.4513,0
4,1,13,1,13,3,32, man052.jpg, cue_3.jpg,1,1.3488,0
4,1,14,1,14,4,166, man223.jpg, cue_4.jpg,3,1.3461,1
4,1,15,1,15,4,133, man178.jpg, cue_4.jpg,4,1.4818,0
4,1,16,1,16,4,114, man156.jpg, cue_4.jpg,3,1.6339,1
4,1,17,1,17,3,197, man271.jpg, cue_3.jpg,4,0.9419,1
4,1,18,1,18,1,171, man233.jpg, cue_1.jpg,1,1.5269,1
4,1,19,1,19,2,9, man016.jpg, cue_2.jpg,4,1.3354,0
4,1,20,1,20,2,61, man089.jpg, cue_2.jpg,1,1.2859,0
4,1,21,1,21,3,220, man305.jpg, cue_3.jpg,3,1.3484,0
4,1,22,1,22,4,200, man276.jpg, cue_4.jpg,3,2.0201,1
4,1,23,1,23,2,46, man068.jpg, cue_2.jpg,1,1.6457,0
4,1,24,1,24,4,111, man153.jpg, cue_4.jpg,1,1.5686,0
4,1,25,1,25,2,93, man128.jpg, cue_2.jpg,2,2.0531,1
4,1,26,1,26,1,161, man213.jpg, cue_1.jpg,4,1.3593,0
4,1,27,1,27,1,76, man108.jpg, cue_1.jpg,1,1.2932,1
4,1,28,1,28,3,139, man185.jpg, cue_3.jpg,3,1.4953,0
4,1,29,1,29,2,168, man229.jpg, cue_2.jpg,3,2.0636,0
4,1,30,1,30,4,187, man253.jpg, cue_4.jpg,3,1.8716,1
4,1,31,1,31,2,36, man057.jpg, cue_2.jpg,2,1.8736,1
4,1,32,1,32,2,54, man078.jpg, cue_2.jpg,2,1.2992,1
4,1,33,1,33,4,2, man004.jpg, cue_4.jpg,2,1.0518,0
4,1,34,1,34,3,16, man027.jpg, cue_3.jpg,3,2.2146,0
4,1,35,1,35,4,134, man179.jpg, cue_4.jpg,1,1.5527,0
4,1,36,1,36,3,156, man207.jpg, cue_3.jpg,2,1.1576,0
4,1,37,1,37,2,222, man307.jpg, cue_2.jpg,4,1.0362,0
4,1,38,1,38,2,142, man188.jpg, cue_2.jpg,1,2.183,0
4,1,39,1,39,1,75, man107.jpg, cue_1.jpg,2,1.0894,0
4,1,40,1,40,3,74, man106.jpg, cue_3.jpg,4,1.9929,1
4,1,41,1,41,2,174, man237.jpg, cue_2.jpg,2,1.3673,1
4,1,42,1,42,2,208, man287.jpg, cue_2.jpg,1,2.1897,0
4,1,43,1,43,3,71, man102.jpg, cue_3.jpg,3,1.353,0
4,1,44,1,44,4,109, man150.jpg, cue_4.jpg,1,1.2544,0
4,1,45,1,45,4,122, man164.jpg, cue_4.jpg,4,2.3119,0
4,1,46,1,46,4,175, man238.jpg, cue_4.jpg,1,1.1662,0
4,1,47,1,47,3,45, man067.jpg, cue_3.jpg,4,2.3075,1
4,1,48,1,48,3,203, man279.jpg, cue_3.jpg,1,2.0028,0
4,1,49,1,49,1,154, man205.jpg, cue_1.jpg,2,1.3494,0
4,1,50,1,50,3,58, man085.jpg, cue_3.jpg,3,1.3791,0
4,1,51,1,51,1,85, man118.jpg, cue_1.jpg,2,1.0716,0
4,1,52,1,52,1,82, man114.jpg, cue_1.jpg,3,1.5454,0
4,1,53,1,53,2,35, man056.jpg, cue_2.jpg,4,1.3915,0
4,1,54,1,54,1,238, man332.jpg, cue_1.jpg,1,1.8674,1
4,1,55,1,55,3,65, man094.jpg, cue_3.jpg,3,1.9975,0
4,1,56,1,56,1,136, man182.jpg, cue_1.jpg,1,1.6319,1
4,1,57,1,57,3,11, man019.jpg, cue_3.jpg,3,1.9314,0
4,1,58,1,58,2,80, man112.jpg, cue_2.jpg,1,1.0887,0
4,1,59,1,59,4,50, man073.jpg, cue_4.jpg,3,1.1616,1
4,1,60,1,60,1,138, man184.jpg, cue_1.jpg,1,1.9135,1
4,1,61,1,61,4,100, man136.jpg, cue_4.jpg,1,2.1381,0
4,1,62,1,62,1,235, man328.jpg, cue_1.jpg,2,1.3828,0
4,1,63,1,63,2,149, man198.jpg, cue_2.jpg,4,1.5712,0
4,1,64,1,64,3,28, man045.jpg, cue_3.jpg,2,1.1899,0
4,1,65,1,65,2,113, man155.jpg, cue_2.jpg,3,1.7724,0
4,1,66,1,66,1,198, man273.jpg, cue_1.jpg,2,1.0324,0
4,1,67,1,67,4,201, man277.jpg, cue_4.jpg,3,1.6993,1
4,1,68,1,68,2,146, man193.jpg, cue_2.jpg,1,1.7715,0
4,1,69,1,69,1,33, man054.jpg, cue_1.jpg,2,1.1281,0
4,1,70,1,70,1,20, man034.jpg, cue_1.jpg,1,2.2237,1
4,1,71,1,71,2,10, man017.jpg, cue_2.jpg,2,1.0741,1
4,1,72,1,72,1,107, man147.jpg, cue_1.jpg,4,2.4855,0
4,1,73,1,73,2,13, man023.jpg, cue_2.jpg,2,0.9323,1
4,1,74,1,74,1,190, man257.jpg, cue_1.jpg,3,2.254,0
4,1,75,1,75,4,120, man162.jpg, cue_4.jpg,4,2.1493,0
4,1,76,1,76,3,148, man197.jpg, cue_3.jpg,1,1.3455,0
4,1,77,1,77,1,217, man302.jpg, cue_1.jpg,2,0.973,0
4,1,78,1,78,4,5, man010.jpg, cue_4.jpg,1,1.6456,0
4,1,79,1,79,2,92, man126.jpg, cue_2.jpg,3,2.2857,0
4,1,80,1,80,1,159, man210.jpg, cue_1.jpg,1,1.7335,1
4,1,81,2,1,3,11, man019.jpg, cue_3.jpg,4,1.4544,1
4,1,82,2,2,3,203, man279.jpg, cue_3.jpg,4,1.4903,1
4,1,83,2,3,2,93, man128.jpg, cue_2.jpg,2,0.9803,1
4,1,84,2,4,1,105, man144.jpg, cue_1.jpg,1,1.5472,1
4,1,85,2,5,3,99, man135.jpg, cue_3.jpg,4,1.6735,1
4,1,86,2,6,2,10, man017.jpg, cue_2.jpg,2,1.4828,1
4,1,87,2,7,4,187, man253.jpg, cue_4.jpg,3,2.0607,1
4,1,88,2,8,1,159, man210.jpg, cue_1.jpg,1,1.6231,1
4,1,89,2,9,3,139, man185.jpg, cue_3.jpg,4,1.1709,1
4,1,90,2,10,2,149, man198.jpg, cue_2.jpg,2,1.4271,1
4,1,91,2,11,4,109, man150.jpg, cue_4.jpg,3,2.0398,1
4,1,92,2,12,3,71, man102.jpg, cue_3.jpg,4,1.0745,1
4,1,93,2,13,2,9, man016.jpg, cue_2.jpg,2,0.9502,1
4,1,94,2,14,1,107, man147.jpg, cue_1.jpg,1,1.1006,1
4,1,95,2,15,4,133, man178.jpg, cue_4.jpg,1,2.0313,0
4,1,96,2,16,4,120, man162.jpg, cue_4.jpg,3,0.9896,1
4,1,97,2,17,3,58, man085.jpg, cue_3.jpg,4,1.2729,1
4,1,98,2,18,3,197, man271.jpg, cue_3.jpg,4,0.9157,1
4,1,99,2,19,3,65, man094.jpg, cue_3.jpg,1,1.3384,0
4,1,100,2,20,4,166, man223.jpg, cue_4.jpg,3,2.1871,1
4,1,101,2,21,1,85, man118.jpg, cue_1.jpg,1,0.9117,1
4,1,102,2,22,1,154, man205.jpg, cue_1.jpg,1,1.0017,1
4,1,103,2,23,4,114, man156.jpg, cue_4.jpg,3,1.3279,1
4,1,104,2,24,4,122, man164.jpg, cue_4.jpg,3,2.041,1
4,1,105,2,25,2,174, man237.jpg, cue_2.jpg,2,2.2918,1
4,1,106,2,26,3,148, man197.jpg, cue_3.jpg,4,1.9406,1
4,1,107,2,27,2,146, man193.jpg, cue_2.jpg,2,1.6096,1
4,1,108,2,28,2,113, man155.jpg, cue_2.jpg,2,1.0453,1
4,1,109,2,29,3,45, man067.jpg, cue_3.jpg,1,2.0908,0
4,1,110,2,30,4,175, man238.jpg, cue_4.jpg,3,2.0258,1
4,1,111,2,31,2,222, man307.jpg, cue_2.jpg,2,1.1733,1
4,1,112,2,32,1,82, man114.jpg, cue_1.jpg,2,0.9804,0
4,1,113,2,33,3,165, man222.jpg, cue_3.jpg,4,1.7937,1
4,1,114,2,34,4,147, man196.jpg, cue_4.jpg,2,1.7412,0
4,1,115,2,35,1,190, man257.jpg, cue_1.jpg,1,1.5787,1
4,1,116,2,36,2,142, man188.jpg, cue_2.jpg,3,2.0092,0
4,1,117,2,37,2,24, man040.jpg, cue_2.jpg,2,0.9074,1
4,1,118,2,38,3,156, man207.jpg, cue_3.jpg,3,2.0689,0
4,1,119,2,39,3,164, man221.jpg, cue_3.jpg,4,1.2533,1
4,1,120,2,40,2,80, man112.jpg, cue_2.jpg,1,1.1914,0
4,1,121,2,41,3,16, man027.jpg, cue_3.jpg,7,0,0
4,1,122,2,42,1,198, man273.jpg, cue_1.jpg,2,0.826,0
4,1,123,2,43,2,46, man068.jpg, cue_2.jpg,2,0.9742,1
4,1,124,2,44,1,171, man233.jpg, cue_1.jpg,1,1.2379,1
4,1,125,2,45,1,238, man332.jpg, cue_1.jpg,1,1.1702,1
4,1,126,2,46,2,13, man023.jpg, cue_2.jpg,2,0.9456,1
4,1,127,2,47,3,220, man305.jpg, cue_3.jpg,4,1.2257,1
4,1,128,2,48,1,217, man302.jpg, cue_1.jpg,2,1.0118,0
4,1,129,2,49,1,75, man107.jpg, cue_1.jpg,3,1.2191,0
4,1,130,2,50,4,216, man301.jpg, cue_4.jpg,3,0.8997,1
4,1,131,2,51,3,77, man109.jpg, cue_3.jpg,2,1.1045,0
4,1,132,2,52,1,76, man108.jpg, cue_1.jpg,1,1.1926,1
4,1,133,2,53,4,30, man048.jpg, cue_4.jpg,3,1.5274,1
4,1,134,2,54,1,20, man034.jpg, cue_1.jpg,1,2.0398,1
4,1,135,2,55,2,36, man057.jpg, cue_2.jpg,2,0.9468,1
4,1,136,2,56,3,32, man052.jpg, cue_3.jpg,4,2.0272,1
4,1,137,2,57,4,5, man010.jpg, cue_4.jpg,2,1.4934,0
4,1,138,2,58,4,50, man073.jpg, cue_4.jpg,3,0.8148,1
4,1,139,2,59,2,61, man089.jpg, cue_2.jpg,4,1.453,0
4,1,140,2,60,1,136, man182.jpg, cue_1.jpg,1,1.2225,1
4,1,141,2,61,4,201, man277.jpg, cue_4.jpg,3,2.0035,1
4,1,142,2,62,1,138, man184.jpg, cue_1.jpg,2,0.9759,0
4,1,143,2,63,4,227, man313.jpg, cue_4.jpg,2,1.1655,0
4,1,144,2,64,1,161, man213.jpg, cue_1.jpg,3,1.891,0
4,1,145,2,65,4,100, man136.jpg, cue_4.jpg,3,2.4103,1
4,1,146,2,66,2,92, man126.jpg, cue_2.jpg,2,1.4617,1
4,1,147,2,67,1,157, man208.jpg, cue_1.jpg,3,1.9131,0
4,1,148,2,68,2,54, man078.jpg, cue_2.jpg,4,1.7119,0
4,1,149,2,69,2,35, man056.jpg, cue_2.jpg,2,1.2277,1
4,1,150,2,70,4,134, man179.jpg, cue_4.jpg,2,1.3449,0
4,1,151,2,71,1,33, man054.jpg, cue_1.jpg,1,1.4866,1
4,1,152,2,72,3,28, man045.jpg, cue_3.jpg,2,1.9694,0
4,1,153,2,73,4,111, man153.jpg, cue_4.jpg,3,2.0533,1
4,1,154,2,74,1,235, man328.jpg, cue_1.jpg,2,1.0612,0
4,1,155,2,75,2,168, man229.jpg, cue_2.jpg,2,1.1355,1
4,1,156,2,76,3,74, man106.jpg, cue_3.jpg,4,1.2638,1
4,1,157,2,77,2,208, man287.jpg, cue_2.jpg,3,2.1227,0
4,1,158,2,78,3,123, man165.jpg, cue_3.jpg,4,2.313,1
4,1,159,2,79,4,2, man004.jpg, cue_4.jpg,4,1.6568,0
4,1,160,2,80,4,200, man276.jpg, cue_4.jpg,3,1.7379,1
4,1,161,3,1,4,114, man156.jpg, cue_4.jpg,3,0.9725,1
4,1,162,3,2,3,16, man027.jpg, cue_3.jpg,4,1.4284,1
4,1,163,3,3,4,200, man276.jpg, cue_4.jpg,3,0.9529,1
4,1,164,3,4,3,58, man085.jpg, cue_3.jpg,4,0.8812,1
4,1,165,3,5,3,203, man279.jpg, cue_3.jpg,4,0.9086,1
4,1,166,3,6,4,227, man313.jpg, cue_4.jpg,3,1.1258,1
4,1,167,3,7,2,54, man078.jpg, cue_2.jpg,2,0.8881,1
4,1,168,3,8,3,71, man102.jpg, cue_3.jpg,4,0.883,1
4,1,169,3,9,4,133, man178.jpg, cue_4.jpg,3,1.3903,1
4,1,170,3,10,2,46, man068.jpg, cue_2.jpg,2,0.8524,1
4,1,171,3,11,4,2, man004.jpg, cue_4.jpg,3,1.1689,1
4,1,172,3,12,4,30, man048.jpg, cue_4.jpg,3,1.0405,1
4,1,173,3,13,2,174, man237.jpg, cue_2.jpg,2,1.0773,1
4,1,174,3,14,1,159, man210.jpg, cue_1.jpg,1,1.3672,1
4,1,175,3,15,4,5, man010.jpg, cue_4.jpg,3,1.0078,1
4,1,176,3,16,2,13, man023.jpg, cue_2.jpg,2,0.694,1
4,1,177,3,17,4,122, man164.jpg, cue_4.jpg,4,1.4001,0
4,1,178,3,18,3,220, man305.jpg, cue_3.jpg,4,0.8054,1
4,1,179,3,19,1,75, man107.jpg, cue_1.jpg,1,1.2039,1
4,1,180,3,20,1,198, man273.jpg, cue_1.jpg,1,1.2338,1
4,1,181,3,21,2,61, man089.jpg, cue_2.jpg,2,0.9739,1
4,1,182,3,22,2,24, man040.jpg, cue_2.jpg,2,0.9805,1
4,1,183,3,23,1,107, man147.jpg, cue_1.jpg,1,0.9727,1
4,1,184,3,24,3,65, man094.jpg, cue_3.jpg,4,1.2048,1
4,1,185,3,25,3,197, man271.jpg, cue_3.jpg,4,0.9466,1
4,1,186,3,26,3,165, man222.jpg, cue_3.jpg,4,1.0351,1
4,1,187,3,27,4,175, man238.jpg, cue_4.jpg,3,1.136,1
4,1,188,3,28,3,148, man197.jpg, cue_3.jpg,4,1.5846,1
4,1,189,3,29,1,82, man114.jpg, cue_1.jpg,1,1.0065,1
4,1,190,3,30,3,11, man019.jpg, cue_3.jpg,4,0.9463,1
4,1,191,3,31,2,36, man057.jpg, cue_2.jpg,2,0.8773,1
4,1,192,3,32,2,10, man017.jpg, cue_2.jpg,4,1.2092,0
4,1,193,3,33,1,190, man257.jpg, cue_1.jpg,1,1.1971,1
4,1,194,3,34,4,111, man153.jpg, cue_4.jpg,2,1.6112,0
4,1,195,3,35,3,45, man067.jpg, cue_3.jpg,4,1.5498,1
4,1,196,3,36,2,113, man155.jpg, cue_2.jpg,2,1.0376,1
4,1,197,3,37,1,105, man144.jpg, cue_1.jpg,1,0.9462,1
4,1,198,3,38,2,208, man287.jpg, cue_2.jpg,2,1.2589,1
4,1,199,3,39,2,149, man198.jpg, cue_2.jpg,2,1.0145,1
4,1,200,3,40,2,222, man307.jpg, cue_2.jpg,2,1.0353,1
4,1,201,3,41,3,156, man207.jpg, cue_3.jpg,4,1.105,1
4,1,202,3,42,1,76, man108.jpg, cue_1.jpg,1,1.3314,1
4,1,203,3,43,4,109, man150.jpg, cue_4.jpg,3,1.8168,1
4,1,204,3,44,1,85, man118.jpg, cue_1.jpg,1,0.943,1
4,1,205,3,45,1,238, man332.jpg, cue_1.jpg,1,0.9513,1
4,1,206,3,46,1,20, man034.jpg, cue_1.jpg,1,1.0725,1
4,1,207,3,47,1,157, man208.jpg, cue_1.jpg,1,2.1317,1
4,1,208,3,48,4,120, man162.jpg, cue_4.jpg,3,1.4033,1
4,1,209,3,49,4,166, man223.jpg, cue_4.jpg,3,1.0088,1
4,1,210,3,50,2,35, man056.jpg, cue_2.jpg,2,1.5911,1
4,1,211,3,51,2,93, man128.jpg, cue_2.jpg,2,0.9711,1
4,1,212,3,52,1,235, man328.jpg, cue_1.jpg,1,1.2988,1
4,1,213,3,53,2,142, man188.jpg, cue_2.jpg,3,1.9006,0
4,1,214,3,54,4,216, man301.jpg, cue_4.jpg,3,0.9307,1
4,1,215,3,55,3,74, man106.jpg, cue_3.jpg,4,0.9863,1
4,1,216,3,56,2,92, man126.jpg, cue_2.jpg,2,1.0424,1
4,1,217,3,57,3,123, man165.jpg, cue_3.jpg,4,1.4632,1
4,1,218,3,58,1,136, man182.jpg, cue_1.jpg,1,1.0977,1
4,1,219,3,59,3,32, man052.jpg, cue_3.jpg,4,1.1961,1
4,1,220,3,60,1,171, man233.jpg, cue_1.jpg,1,1.4171,1
4,1,221,3,61,1,161, man213.jpg, cue_1.jpg,1,1.0388,1
4,1,222,3,62,1,33, man054.jpg, cue_1.jpg,1,1.7797,1
4,1,223,3,63,3,77, man109.jpg, cue_3.jpg,4,1.1134,1
4,1,224,3,64,4,50, man073.jpg, cue_4.jpg,3,0.9713,1
4,1,225,3,65,2,168, man229.jpg, cue_2.jpg,2,1.0107,1
4,1,226,3,66,2,146, man193.jpg, cue_2.jpg,2,1.4334,1
4,1,227,3,67,1,138, man184.jpg, cue_1.jpg,1,0.9095,1
4,1,228,3,68,4,134, man179.jpg, cue_4.jpg,2,1.3187,0
4,1,229,3,69,1,154, man205.jpg, cue_1.jpg,1,0.9344,1
4,1,230,3,70,2,80, man112.jpg, cue_2.jpg,2,2.2528,1
4,1,231,3,71,3,28, man045.jpg, cue_3.jpg,4,1.4238,1
4,1,232,3,72,4,100, man136.jpg, cue_4.jpg,3,1.6218,1
4,1,233,3,73,3,139, man185.jpg, cue_3.jpg,4,1.5213,1
4,1,234,3,74,1,217, man302.jpg, cue_1.jpg,3,2.3222,0
4,1,235,3,75,4,147, man196.jpg, cue_4.jpg,4,2.0561,0
4,1,236,3,76,3,164, man221.jpg, cue_3.jpg,4,0.9994,1
4,1,237,3,77,3,99, man135.jpg, cue_3.jpg,4,0.9748,1
4,1,238,3,78,2,9, man016.jpg, cue_2.jpg,2,0.9505,1
4,1,239,3,79,4,187, man253.jpg, cue_4.jpg,3,1.3269,1
4,1,240,3,80,4,201, man277.jpg, cue_4.jpg,3,1.0159,1
4,1,241,4,1,4,200, man276.jpg, cue_4.jpg,3,0.7785,1
4,1,242,4,2,4,201, man277.jpg, cue_4.jpg,3,0.844,1
4,1,243,4,3,4,30, man048.jpg, cue_4.jpg,3,0.889,1
4,1,244,4,4,1,138, man184.jpg, cue_1.jpg,1,1.3004,1
4,1,245,4,5,4,2, man004.jpg, cue_4.jpg,3,0.9732,1
4,1,246,4,6,3,11, man019.jpg, cue_3.jpg,4,0.8855,1
4,1,247,4,7,4,50, man073.jpg, cue_4.jpg,3,0.785,1
4,1,248,4,8,1,136, man182.jpg, cue_1.jpg,1,0.8795,1
4,1,249,4,9,2,146, man193.jpg, cue_2.jpg,2,1.0661,1
4,1,250,4,10,2,149, man198.jpg, cue_2.jpg,2,0.7186,1
4,1,251,4,11,1,198, man273.jpg, cue_1.jpg,1,0.9133,1
4,1,252,4,12,3,197, man271.jpg, cue_3.jpg,4,0.8107,1
4,1,253,4,13,3,164, man221.jpg, cue_3.jpg,4,0.7928,1
4,1,254,4,14,4,109, man150.jpg, cue_4.jpg,3,1.3694,1
4,1,255,4,15,3,139, man185.jpg, cue_3.jpg,4,1.2299,1
4,1,256,4,16,4,187, man253.jpg, cue_4.jpg,3,0.7489,1
4,1,257,4,17,2,113, man155.jpg, cue_2.jpg,2,0.8455,1
4,1,258,4,18,2,36, man057.jpg, cue_2.jpg,2,0.712,1
4,1,259,4,19,2,46, man068.jpg, cue_2.jpg,2,0.7164,1
4,1,260,4,20,1,82, man114.jpg, cue_1.jpg,1,0.8466,1
4,1,261,4,21,4,147, man196.jpg, cue_4.jpg,3,1.6082,1
4,1,262,4,22,3,58, man085.jpg, cue_3.jpg,4,0.8245,1
4,1,263,4,23,1,105, man144.jpg, cue_1.jpg,1,0.7905,1
4,1,264,4,24,1,217, man302.jpg, cue_1.jpg,1,1.4287,1
4,1,265,4,25,1,157, man208.jpg, cue_1.jpg,1,1.1619,1
4,1,266,4,26,2,168, man229.jpg, cue_2.jpg,2,0.8258,1
4,1,267,4,27,1,238, man332.jpg, cue_1.jpg,1,0.8243,1
4,1,268,4,28,1,171, man233.jpg, cue_1.jpg,1,1.3022,1
4,1,269,4,29,4,166, man223.jpg, cue_4.jpg,3,0.927,1
4,1,270,4,30,1,76, man108.jpg, cue_1.jpg,1,1.305,1
4,1,271,4,31,2,174, man237.jpg, cue_2.jpg,2,1.0106,1
4,1,272,4,32,1,154, man205.jpg, cue_1.jpg,1,0.822,1
4,1,273,4,33,2,13, man023.jpg, cue_2.jpg,2,0.7587,1
4,1,274,4,34,1,20, man034.jpg, cue_1.jpg,1,0.8236,1
4,1,275,4,35,4,175, man238.jpg, cue_4.jpg,3,0.8854,1
4,1,276,4,36,4,114, man156.jpg, cue_4.jpg,3,1.7762,1
4,1,277,4,37,2,208, man287.jpg, cue_2.jpg,2,0.8871,1
4,1,278,4,38,3,16, man027.jpg, cue_3.jpg,4,1.0409,1
4,1,279,4,39,3,32, man052.jpg, cue_3.jpg,4,0.8874,1
4,1,280,4,40,1,107, man147.jpg, cue_1.jpg,1,0.8184,1
4,1,281,4,41,2,92, man126.jpg, cue_2.jpg,2,0.7841,1
4,1,282,4,42,4,111, man153.jpg, cue_4.jpg,3,0.7837,1
4,1,283,4,43,3,123, man165.jpg, cue_3.jpg,4,0.9113,1
4,1,284,4,44,1,75, man107.jpg, cue_1.jpg,1,0.89,1
4,1,285,4,45,2,54, man078.jpg, cue_2.jpg,2,0.7251,1
4,1,286,4,46,2,142, man188.jpg, cue_2.jpg,1,1.783,0
4,1,287,4,47,3,203, man279.jpg, cue_3.jpg,4,0.7705,1
4,1,288,4,48,4,5, man010.jpg, cue_4.jpg,3,1.2337,1
4,1,289,4,49,1,159, man210.jpg, cue_1.jpg,1,1.1336,1
4,1,290,4,50,3,220, man305.jpg, cue_3.jpg,4,1.5202,1
4,1,291,4,51,4,216, man301.jpg, cue_4.jpg,3,0.7527,1
4,1,292,4,52,3,71, man102.jpg, cue_3.jpg,4,1.1696,1
4,1,293,4,53,3,156, man207.jpg, cue_3.jpg,4,0.881,1
4,1,294,4,54,4,122, man164.jpg, cue_4.jpg,3,1.2281,1
4,1,295,4,55,1,161, man213.jpg, cue_1.jpg,1,0.7292,1
4,1,296,4,56,3,74, man106.jpg, cue_3.jpg,4,0.7786,1
4,1,297,4,57,2,24, man040.jpg, cue_2.jpg,2,0.8399,1
4,1,298,4,58,4,227, man313.jpg, cue_4.jpg,3,1.2072,1
4,1,299,4,59,2,80, man112.jpg, cue_2.jpg,2,1.3653,1
4,1,300,4,60,3,165, man222.jpg, cue_3.jpg,4,0.8415,1
4,1,301,4,61,3,77, man109.jpg, cue_3.jpg,4,0.7614,1
4,1,302,4,62,3,28, man045.jpg, cue_3.jpg,4,0.9058,1
4,1,303,4,63,3,45, man067.jpg, cue_3.jpg,4,0.9452,1
4,1,304,4,64,4,133, man178.jpg, cue_4.jpg,3,1.3247,1
4,1,305,4,65,4,120, man162.jpg, cue_4.jpg,3,0.7256,1
4,1,306,4,66,1,85, man118.jpg, cue_1.jpg,1,0.9178,1
4,1,307,4,67,4,134, man179.jpg, cue_4.jpg,3,1.2977,1
4,1,308,4,68,1,33, man054.jpg, cue_1.jpg,1,0.8434,1
4,1,309,4,69,2,93, man128.jpg, cue_2.jpg,2,0.7928,1
4,1,310,4,70,2,222, man307.jpg, cue_2.jpg,2,0.8242,1
4,1,311,4,71,3,148, man197.jpg, cue_3.jpg,4,0.7903,1
4,1,312,4,72,2,9, man016.jpg, cue_2.jpg,2,0.6598,1
4,1,313,4,73,4,100, man136.jpg, cue_4.jpg,3,1.0972,1
4,1,314,4,74,3,65, man094.jpg, cue_3.jpg,4,0.8759,1
4,1,315,4,75,2,10, man017.jpg, cue_2.jpg,2,1.0277,1
4,1,316,4,76,2,35, man056.jpg, cue_2.jpg,2,1.1,1
4,1,317,4,77,1,190, man257.jpg, cue_1.jpg,1,1.5501,1
4,1,318,4,78,3,99, man135.jpg, cue_3.jpg,4,0.7175,1
4,1,319,4,79,1,235, man328.jpg, cue_1.jpg,1,1.0397,1
4,1,320,4,80,2,61, man089.jpg, cue_2.jpg,2,0.7244,1
5,1,1,1,1,4,93, man128.jpg, cue_4.jpg,2,2.1128,1
5,1,2,1,2,4,179, man244.jpg, cue_4.jpg,2,1.1606,1
5,1,3,1,3,1,91, man125.jpg, cue_1.jpg,3,2.4395,1
5,1,4,1,4,1,21, man035.jpg, cue_1.jpg,3,1.1708,1
5,1,5,1,5,1,112, man154.jpg, cue_1.jpg,3,1.9534,1
5,1,6,1,6,2,80, man112.jpg, cue_2.jpg,1,1.5359,1
5,1,7,1,7,3,161, man213.jpg, cue_3.jpg,4,1.3908,1
5,1,8,1,8,2,15, man025.jpg, cue_2.jpg,1,0.9816,1
5,1,9,1,9,4,211, man295.jpg, cue_4.jpg,2,0.9086,1
5,1,10,1,10,2,114, man156.jpg, cue_2.jpg,1,0.8544,1
5,1,11,1,11,2,52, man076.jpg, cue_2.jpg,1,1.5231,1
5,1,12,1,12,4,239, man333.jpg, cue_4.jpg,2,1.2843,1
5,1,13,1,13,3,183, man248.jpg, cue_3.jpg,4,1.2293,1
5,1,14,1,14,1,201, man277.jpg, cue_1.jpg,3,1.0824,1
5,1,15,1,15,1,181, man246.jpg, cue_1.jpg,2,1.0685,0
5,1,16,1,16,1,77, man109.jpg, cue_1.jpg,3,1.8924,1
5,1,17,1,17,3,22, man036.jpg, cue_3.jpg,4,1.1434,1
5,1,18,1,18,4,162, man215.jpg, cue_4.jpg,2,1.1922,1
5,1,19,1,19,2,171, man233.jpg, cue_2.jpg,7,0,0
5,1,20,1,20,4,74, man106.jpg, cue_4.jpg,4,1.315,0
5,1,21,1,21,2,216, man301.jpg, cue_2.jpg,1,1.0589,1
5,1,22,1,22,3,34, man055.jpg, cue_3.jpg,4,0.8711,1
5,1,23,1,23,2,86, man120.jpg, cue_2.jpg,1,1.619,1
5,1,24,1,24,2,146, man193.jpg, cue_2.jpg,1,0.9105,1
5,1,25,1,25,3,124, man166.jpg, cue_3.jpg,4,0.9048,1
5,1,26,1,26,3,51, man075.jpg, cue_3.jpg,4,0.8517,1
5,1,27,1,27,4,23, man039.jpg, cue_4.jpg,2,1.3268,1
5,1,28,1,28,4,189, man255.jpg, cue_4.jpg,4,1.4488,0
5,1,29,1,29,1,66, man095.jpg, cue_1.jpg,3,1.5369,1
5,1,30,1,30,1,11, man019.jpg, cue_1.jpg,3,1.5536,1
5,1,31,1,31,4,177, man241.jpg, cue_4.jpg,2,1.4246,1
5,1,32,1,32,1,7, man014.jpg, cue_1.jpg,3,0.8695,1
5,1,33,1,33,1,121, man163.jpg, cue_1.jpg,3,1.1208,1
5,1,34,1,34,4,236, man329.jpg, cue_4.jpg,2,2.1296,1
5,1,35,1,35,1,104, man141.jpg, cue_1.jpg,3,1.5449,1
5,1,36,1,36,4,154, man205.jpg, cue_4.jpg,2,1.3512,1
5,1,37,1,37,3,103, man139.jpg, cue_3.jpg,4,0.9421,1
5,1,38,1,38,2,168, man229.jpg, cue_2.jpg,4,1.6081,0
5,1,39,1,39,2,13, man023.jpg, cue_2.jpg,1,0.9702,1
5,1,40,1,40,1,83, man115.jpg, cue_1.jpg,7,0,0
5,1,41,1,41,4,36, man057.jpg, cue_4.jpg,4,1.8065,0
5,1,42,1,42,4,64, man093.jpg, cue_4.jpg,2,1.2899,1
5,1,43,1,43,1,27, man044.jpg, cue_1.jpg,3,2.1486,1
5,1,44,1,44,2,159, man210.jpg, cue_2.jpg,1,1.7224,1
5,1,45,1,45,4,58, man085.jpg, cue_4.jpg,2,1.0736,1
5,1,46,1,46,2,4, man007.jpg, cue_2.jpg,1,1.4617,1
5,1,47,1,47,4,85, man118.jpg, cue_4.jpg,2,1.1606,1
5,1,48,1,48,1,152, man202.jpg, cue_1.jpg,2,2.1678,0
5,1,49,1,49,2,47, man070.jpg, cue_2.jpg,1,1.3948,1
5,1,50,1,50,3,115, man157.jpg, cue_3.jpg,4,1.1607,1
5,1,51,1,51,3,225, man311.jpg, cue_3.jpg,4,1.2225,1
5,1,52,1,52,1,228, man314.jpg, cue_1.jpg,1,2.1648,0
5,1,53,1,53,2,149, man198.jpg, cue_2.jpg,1,2.2239,1
5,1,54,1,54,4,186, man252.jpg, cue_4.jpg,3,1.7784,0
5,1,55,1,55,3,174, man237.jpg, cue_3.jpg,4,1.0056,1
5,1,56,1,56,2,138, man184.jpg, cue_2.jpg,1,1.3154,1
5,1,57,1,57,3,234, man327.jpg, cue_3.jpg,4,1.1003,1
5,1,58,1,58,1,233, man326.jpg, cue_1.jpg,3,1.1467,1
5,1,59,1,59,3,147, man196.jpg, cue_3.jpg,4,1.4852,1
5,1,60,1,60,1,133, man178.jpg, cue_1.jpg,3,2.095,1
5,1,61,1,61,2,90, man124.jpg, cue_2.jpg,1,1.3191,1
5,1,62,1,62,2,132, man177.jpg, cue_2.jpg,1,0.8967,1
5,1,63,1,63,4,131, man174.jpg, cue_4.jpg,2,2.0896,1
5,1,64,1,64,4,46, man068.jpg, cue_4.jpg,2,1.7309,1
5,1,65,1,65,4,43, man064.jpg, cue_4.jpg,2,1.0337,1
5,1,66,1,66,3,24, man040.jpg, cue_3.jpg,4,0.8787,1
5,1,67,1,67,3,158, man209.jpg, cue_3.jpg,4,0.7777,1
5,1,68,1,68,3,49, man072.jpg, cue_3.jpg,4,1.1941,1
5,1,69,1,69,3,14, man024.jpg, cue_3.jpg,4,1.0319,1
5,1,70,1,70,1,8, man015.jpg, cue_1.jpg,3,1.3885,1
5,1,71,1,71,4,173, man236.jpg, cue_4.jpg,2,1.1545,1
5,1,72,1,72,1,5, man010.jpg, cue_1.jpg,3,1.0102,1
5,1,73,1,73,2,227, man313.jpg, cue_2.jpg,1,1.0313,1
5,1,74,1,74,1,150, man199.jpg, cue_1.jpg,3,0.9724,1
5,1,75,1,75,3,140, man186.jpg, cue_3.jpg,4,2.324,1
5,1,76,1,76,3,157, man208.jpg, cue_3.jpg,4,0.8514,1
5,1,77,1,77,3,160, man212.jpg, cue_3.jpg,1,1.7117,0
5,1,78,1,78,2,32, man052.jpg, cue_2.jpg,3,2.109,0
5,1,79,1,79,2,232, man322.jpg, cue_2.jpg,4,1.5796,0
5,1,80,1,80,3,191, man258.jpg, cue_3.jpg,4,1.168,1
5,1,81,2,1,2,47, man070.jpg, cue_2.jpg,1,1.1418,1
5,1,82,2,2,2,13, man023.jpg, cue_2.jpg,1,0.6478,1
5,1,83,2,3,3,103, man139.jpg, cue_3.jpg,4,0.7641,1
5,1,84,2,4,4,46, man068.jpg, cue_4.jpg,2,1.2267,1
5,1,85,2,5,2,32, man052.jpg, cue_2.jpg,1,1.3848,1
5,1,86,2,6,4,154, man205.jpg, cue_4.jpg,2,0.91,1
5,1,87,2,7,3,183, man248.jpg, cue_3.jpg,4,0.7757,1
5,1,88,2,8,2,4, man007.jpg, cue_2.jpg,1,0.7439,1
5,1,89,2,9,3,225, man311.jpg, cue_3.jpg,4,0.7769,1
5,1,90,2,10,4,36, man057.jpg, cue_4.jpg,2,1.5751,1
5,1,91,2,11,3,115, man157.jpg, cue_3.jpg,4,2.1028,1
5,1,92,2,12,1,181, man246.jpg, cue_1.jpg,3,0.8778,1
5,1,93,2,13,1,21, man035.jpg, cue_1.jpg,3,0.9384,1
5,1,94,2,14,3,34, man055.jpg, cue_3.jpg,4,0.7545,1
5,1,95,2,15,1,77, man109.jpg, cue_1.jpg,3,1.011,1
5,1,96,2,16,4,179, man244.jpg, cue_4.jpg,2,1.0339,1
5,1,97,2,17,3,191, man258.jpg, cue_3.jpg,4,1.3585,1
5,1,98,2,18,2,138, man184.jpg, cue_2.jpg,1,0.7893,1
5,1,99,2,19,3,140, man186.jpg, cue_3.jpg,4,0.9649,1
5,1,100,2,20,1,133, man178.jpg, cue_1.jpg,3,0.7169,1
5,1,101,2,21,2,90, man124.jpg, cue_2.jpg,1,0.8779,1
5,1,102,2,22,1,121, man163.jpg, cue_1.jpg,3,0.9213,1
5,1,103,2,23,1,112, man154.jpg, cue_1.jpg,3,0.883,1
5,1,104,2,24,1,7, man014.jpg, cue_1.jpg,3,0.7173,1
5,1,105,2,25,2,15, man025.jpg, cue_2.jpg,1,0.8795,1
5,1,106,2,26,4,131, man174.jpg, cue_4.jpg,2,0.8435,1
5,1,107,2,27,3,124, man166.jpg, cue_3.jpg,4,0.7762,1
5,1,108,2,28,3,160, man212.jpg, cue_3.jpg,4,1.4311,1
5,1,109,2,29,4,85, man118.jpg, cue_4.jpg,2,0.7958,1
5,1,110,2,30,3,22, man036.jpg, cue_3.jpg,4,0.8737,1
5,1,111,2,31,3,49, man072.jpg, cue_3.jpg,4,0.6625,1
5,1,112,2,32,2,159, man210.jpg, cue_2.jpg,1,0.6501,1
5,1,113,2,33,4,43, man064.jpg, cue_4.jpg,2,1.1997,1
5,1,114,2,34,1,27, man044.jpg, cue_1.jpg,3,0.7814,1
5,1,115,2,35,2,86, man120.jpg, cue_2.jpg,1,1.5009,1
5,1,116,2,36,1,152, man202.jpg, cue_1.jpg,3,0.826,1
5,1,117,2,37,2,114, man156.jpg, cue_2.jpg,1,0.9066,1
5,1,118,2,38,1,91, man125.jpg, cue_1.jpg,3,1.1079,1
5,1,119,2,39,2,52, man076.jpg, cue_2.jpg,1,0.8215,1
5,1,120,2,40,4,173, man236.jpg, cue_4.jpg,2,0.7572,1
5,1,121,2,41,3,174, man237.jpg, cue_3.jpg,4,0.7089,1
5,1,122,2,42,1,83, man115.jpg, cue_1.jpg,3,1.1114,1
5,1,123,2,43,1,11, man019.jpg, cue_1.jpg,3,0.8414,1
5,1,124,2,44,1,66, man095.jpg, cue_1.jpg,3,0.7102,1
5,1,125,2,45,2,171, man233.jpg, cue_2.jpg,1,0.7436,1
5,1,126,2,46,4,23, man039.jpg, cue_4.jpg,2,1.2248,1
5,1,127,2,47,4,58, man085.jpg, cue_4.jpg,2,0.9184,1
5,1,128,2,48,3,157, man208.jpg, cue_3.jpg,4,0.7517,1
5,1,129,2,49,2,80, man112.jpg, cue_2.jpg,1,0.8642,1
5,1,130,2,50,1,150, man199.jpg, cue_1.jpg,3,0.7476,1
5,1,131,2,51,2,227, man313.jpg, cue_2.jpg,1,0.7803,1
5,1,132,2,52,3,147, man196.jpg, cue_3.jpg,4,0.6678,1
5,1,133,2,53,4,189, man255.jpg, cue_4.jpg,2,0.751,1
5,1,134,2,54,1,5, man010.jpg, cue_1.jpg,3,0.6891,1
5,1,135,2,55,4,64, man093.jpg, cue_4.jpg,2,0.8194,1
5,1,136,2,56,4,236, man329.jpg, cue_4.jpg,2,1.0421,1
5,1,137,2,57,3,51, man075.jpg, cue_3.jpg,4,0.7903,1
5,1,138,2,58,3,24, man040.jpg, cue_3.jpg,4,0.6288,1
5,1,139,2,59,2,132, man177.jpg, cue_2.jpg,1,0.7482,1
5,1,140,2,60,4,177, man241.jpg, cue_4.jpg,2,1.5163,1
5,1,141,2,61,4,211, man295.jpg, cue_4.jpg,2,0.718,1
5,1,142,2,62,1,228, man314.jpg, cue_1.jpg,3,0.8157,1
5,1,143,2,63,3,234, man327.jpg, cue_3.jpg,4,1.1332,1
5,1,144,2,64,1,104, man141.jpg, cue_1.jpg,3,1.0064,1
5,1,145,2,65,3,14, man024.jpg, cue_3.jpg,4,0.7572,1
5,1,146,2,66,2,216, man301.jpg, cue_2.jpg,1,0.7572,1
5,1,147,2,67,4,74, man106.jpg, cue_4.jpg,2,1.5269,1
5,1,148,2,68,4,239, man333.jpg, cue_4.jpg,2,0.7274,1
5,1,149,2,69,4,162, man215.jpg, cue_4.jpg,2,1.6083,1
5,1,150,2,70,4,186, man252.jpg, cue_4.jpg,2,0.8861,1
5,1,151,2,71,2,232, man322.jpg, cue_2.jpg,1,0.9285,1
5,1,152,2,72,2,168, man229.jpg, cue_2.jpg,1,0.7935,1
5,1,153,2,73,3,161, man213.jpg, cue_3.jpg,4,0.8717,1
5,1,154,2,74,2,146, man193.jpg, cue_2.jpg,1,0.8501,1
5,1,155,2,75,1,201, man277.jpg, cue_1.jpg,3,0.8777,1
5,1,156,2,76,1,233, man326.jpg, cue_1.jpg,3,0.8589,1
5,1,157,2,77,1,8, man015.jpg, cue_1.jpg,3,0.8228,1
5,1,158,2,78,4,93, man128.jpg, cue_4.jpg,2,0.8518,1
5,1,159,2,79,3,158, man209.jpg, cue_3.jpg,4,0.7696,1
5,1,160,2,80,2,149, man198.jpg, cue_2.jpg,1,0.8496,1
5,1,161,3,1,1,112, man154.jpg, cue_1.jpg,3,0.6682,1
5,1,162,3,2,2,132, man177.jpg, cue_2.jpg,1,0.6244,1
5,1,163,3,3,1,91, man125.jpg, cue_1.jpg,3,0.6946,1
5,1,164,3,4,3,24, man040.jpg, cue_3.jpg,4,0.5849,1
5,1,165,3,5,3,191, man258.jpg, cue_3.jpg,4,0.5935,1
5,1,166,3,6,3,225, man311.jpg, cue_3.jpg,4,0.616,1
5,1,167,3,7,4,43, man064.jpg, cue_4.jpg,2,0.6064,1
5,1,168,3,8,3,115, man157.jpg, cue_3.jpg,4,0.645,1
5,1,169,3,9,1,83, man115.jpg, cue_1.jpg,3,0.6172,1
5,1,170,3,10,1,133, man178.jpg, cue_1.jpg,3,0.6876,1
5,1,171,3,11,1,27, man044.jpg, cue_1.jpg,3,0.5956,1
5,1,172,3,12,3,157, man208.jpg, cue_3.jpg,4,0.6188,1
5,1,173,3,13,4,36, man057.jpg, cue_4.jpg,2,0.9441,1
5,1,174,3,14,1,121, man163.jpg, cue_1.jpg,3,0.6493,1
5,1,175,3,15,3,103, man139.jpg, cue_3.jpg,4,0.6851,1
5,1,176,3,16,2,15, man025.jpg, cue_2.jpg,1,0.6572,1
5,1,177,3,17,2,232, man322.jpg, cue_2.jpg,1,0.6311,1
5,1,178,3,18,3,234, man327.jpg, cue_3.jpg,4,0.8765,1
5,1,179,3,19,3,174, man237.jpg, cue_3.jpg,4,0.6799,1
5,1,180,3,20,2,13, man023.jpg, cue_2.jpg,1,0.6997,1
5,1,181,3,21,4,74, man106.jpg, cue_4.jpg,2,0.8779,1
5,1,182,3,22,3,140, man186.jpg, cue_3.jpg,4,0.6006,1
5,1,183,3,23,1,66, man095.jpg, cue_1.jpg,3,0.6374,1
5,1,184,3,24,4,236, man329.jpg, cue_4.jpg,2,0.7558,1
5,1,185,3,25,4,23, man039.jpg, cue_4.jpg,2,0.7576,1
5,1,186,3,26,4,177, man241.jpg, cue_4.jpg,2,0.6615,1
5,1,187,3,27,4,189, man255.jpg, cue_4.jpg,2,0.5868,1
5,1,188,3,28,1,5, man010.jpg, cue_1.jpg,4,0.6417,0
5,1,189,3,29,4,186, man252.jpg, cue_4.jpg,2,0.6844,1
5,1,190,3,30,3,22, man036.jpg, cue_3.jpg,4,0.753,1
5,1,191,3,31,4,211, man295.jpg, cue_4.jpg,2,0.6584,1
5,1,192,3,32,4,58, man085.jpg, cue_4.jpg,2,0.6623,1
5,1,193,3,33,1,181, man246.jpg, cue_1.jpg,3,0.8434,1
5,1,194,3,34,3,183, man248.jpg, cue_3.jpg,4,0.7435,1
5,1,195,3,35,4,131, man174.jpg, cue_4.jpg,2,0.7762,1
5,1,196,3,36,3,51, man075.jpg, cue_3.jpg,4,0.7426,1
5,1,197,3,37,1,201, man277.jpg, cue_1.jpg,3,0.696,1
5,1,198,3,38,1,233, man326.jpg, cue_1.jpg,3,0.6499,1
5,1,199,3,39,1,8, man015.jpg, cue_1.jpg,3,0.6232,1
5,1,200,3,40,2,171, man233.jpg, cue_2.jpg,1,0.6945,1
5,1,201,3,41,4,46, man068.jpg, cue_4.jpg,2,0.8415,1
5,1,202,3,42,4,64, man093.jpg, cue_4.jpg,2,0.6464,1
5,1,203,3,43,3,161, man213.jpg, cue_3.jpg,4,0.6192,1
5,1,204,3,44,1,152, man202.jpg, cue_1.jpg,3,0.6895,1
5,1,205,3,45,4,173, man236.jpg, cue_4.jpg,2,0.6932,1
5,1,206,3,46,3,160, man212.jpg, cue_3.jpg,4,0.7117,1
5,1,207,3,47,1,77, man109.jpg, cue_1.jpg,3,0.7462,1
5,1,208,3,48,2,86, man120.jpg, cue_2.jpg,1,0.8416,1
5,1,209,3,49,4,162, man215.jpg, cue_4.jpg,2,0.6326,1
5,1,210,3,50,2,138, man184.jpg, cue_2.jpg,1,0.6531,1
5,1,211,3,51,3,14, man024.jpg, cue_3.jpg,4,0.6895,1
5,1,212,3,52,4,93, man128.jpg, cue_4.jpg,2,0.6783,1
5,1,213,3,53,4,239, man333.jpg, cue_4.jpg,2,0.6176,1
5,1,214,3,54,2,90, man124.jpg, cue_2.jpg,1,0.6866,1
5,1,215,3,55,1,228, man314.jpg, cue_1.jpg,3,0.6113,1
5,1,216,3,56,2,159, man210.jpg, cue_2.jpg,1,0.6166,1
5,1,217,3,57,2,216, man301.jpg, cue_2.jpg,1,0.7834,1
5,1,218,3,58,2,146, man193.jpg, cue_2.jpg,1,0.8463,1
5,1,219,3,59,2,114, man156.jpg, cue_2.jpg,1,0.6519,1
5,1,220,3,60,4,154, man205.jpg, cue_4.jpg,2,0.6562,1
5,1,221,3,61,1,7, man014.jpg, cue_1.jpg,3,0.7257,1
5,1,222,3,62,2,4, man007.jpg, cue_2.jpg,1,0.7116,1
5,1,223,3,63,3,34, man055.jpg, cue_3.jpg,4,0.6498,1
5,1,224,3,64,2,149, man198.jpg, cue_2.jpg,1,0.7821,1
5,1,225,3,65,2,168, man229.jpg, cue_2.jpg,1,0.717,1
5,1,226,3,66,2,47, man070.jpg, cue_2.jpg,1,0.7526,1
5,1,227,3,67,1,11, man019.jpg, cue_1.jpg,3,0.785,1
5,1,228,3,68,1,21, man035.jpg, cue_1.jpg,3,0.6876,1
5,1,229,3,69,1,150, man199.jpg, cue_1.jpg,3,0.5956,1
5,1,230,3,70,1,104, man141.jpg, cue_1.jpg,3,0.6186,1
5,1,231,3,71,3,147, man196.jpg, cue_3.jpg,4,0.673,1
5,1,232,3,72,2,80, man112.jpg, cue_2.jpg,1,0.6128,1
5,1,233,3,73,2,52, man076.jpg, cue_2.jpg,1,0.6826,1
5,1,234,3,74,2,32, man052.jpg, cue_2.jpg,1,0.7505,1
5,1,235,3,75,2,227, man313.jpg, cue_2.jpg,1,0.5914,1
5,1,236,3,76,3,124, man166.jpg, cue_3.jpg,4,0.7904,1
5,1,237,3,77,3,49, man072.jpg, cue_3.jpg,4,0.6455,1
5,1,238,3,78,4,85, man118.jpg, cue_4.jpg,2,0.6824,1
5,1,239,3,79,3,158, man209.jpg, cue_3.jpg,4,0.6544,1
5,1,240,3,80,4,179, man244.jpg, cue_4.jpg,2,1.8749,1
5,1,241,4,1,1,121, man163.jpg, cue_1.jpg,3,0.7108,1
5,1,242,4,2,3,124, man166.jpg, cue_3.jpg,4,0.6802,1
5,1,243,4,3,4,236, man329.jpg, cue_4.jpg,2,0.7636,1
5,1,244,4,4,2,216, man301.jpg, cue_2.jpg,1,0.5876,1
5,1,245,4,5,1,8, man015.jpg, cue_1.jpg,3,0.5949,1
5,1,246,4,6,3,234, man327.jpg, cue_3.jpg,4,0.6513,1
5,1,247,4,7,3,160, man212.jpg, cue_3.jpg,4,0.6397,1
5,1,248,4,8,3,49, man072.jpg, cue_3.jpg,4,0.5332,1
5,1,249,4,9,3,174, man237.jpg, cue_3.jpg,4,0.5572,1
5,1,250,4,10,4,239, man333.jpg, cue_4.jpg,2,0.6474,1
5,1,251,4,11,2,114, man156.jpg, cue_2.jpg,1,0.5563,1
5,1,252,4,12,1,5, man010.jpg, cue_1.jpg,3,0.6288,1
5,1,253,4,13,4,36, man057.jpg, cue_4.jpg,2,0.7464,1
5,1,254,4,14,3,147, man196.jpg, cue_3.jpg,4,0.6678,1
5,1,255,4,15,2,52, man076.jpg, cue_2.jpg,1,0.623,1
5,1,256,4,16,2,159, man210.jpg, cue_2.jpg,1,0.6301,1
5,1,257,4,17,4,154, man205.jpg, cue_4.jpg,2,0.7311,1
5,1,258,4,18,2,13, man023.jpg, cue_2.jpg,1,0.5566,1
5,1,259,4,19,3,24, man040.jpg, cue_3.jpg,4,0.6279,1
5,1,260,4,20,2,146, man193.jpg, cue_2.jpg,1,0.6504,1
5,1,261,4,21,4,131, man174.jpg, cue_4.jpg,2,0.6563,1
5,1,262,4,22,4,179, man244.jpg, cue_4.jpg,2,1.0769,1
5,1,263,4,23,4,173, man236.jpg, cue_4.jpg,2,0.6487,1
5,1,264,4,24,1,11, man019.jpg, cue_1.jpg,3,0.6214,1
5,1,265,4,25,2,149, man198.jpg, cue_2.jpg,1,0.6586,1
5,1,266,4,26,4,177, man241.jpg, cue_4.jpg,2,0.5833,1
5,1,267,4,27,3,183, man248.jpg, cue_3.jpg,4,0.624,1
5,1,268,4,28,3,140, man186.jpg, cue_3.jpg,4,0.5663,1
5,1,269,4,29,2,86, man120.jpg, cue_2.jpg,1,0.7312,1
5,1,270,4,30,3,14, man024.jpg, cue_3.jpg,4,0.6074,1
5,1,271,4,31,2,47, man070.jpg, cue_2.jpg,1,0.6304,1
5,1,272,4,32,3,225, man311.jpg, cue_3.jpg,4,0.684,1
5,1,273,4,33,1,150, man199.jpg, cue_1.jpg,3,0.6222,1
5,1,274,4,34,4,64, man093.jpg, cue_4.jpg,2,0.6299,1
5,1,275,4,35,4,85, man118.jpg, cue_4.jpg,2,0.6352,1
5,1,276,4,36,1,21, man035.jpg, cue_1.jpg,3,0.672,1
5,1,277,4,37,2,168, man229.jpg, cue_2.jpg,1,0.7565,1
5,1,278,4,38,4,186, man252.jpg, cue_4.jpg,2,0.6284,1
5,1,279,4,39,2,171, man233.jpg, cue_2.jpg,1,0.6183,1
5,1,280,4,40,3,158, man209.jpg, cue_3.jpg,4,0.6251,1
5,1,281,4,41,1,66, man095.jpg, cue_1.jpg,3,0.679,1
5,1,282,4,42,2,132, man177.jpg, cue_2.jpg,1,0.5865,1
5,1,283,4,43,1,201, man277.jpg, cue_1.jpg,3,0.6585,1
5,1,284,4,44,1,83, man115.jpg, cue_1.jpg,3,0.6636,1
5,1,285,4,45,4,189, man255.jpg, cue_4.jpg,2,0.6185,1
5,1,286,4,46,1,91, man125.jpg, cue_1.jpg,3,0.5455,1
5,1,287,4,47,3,157, man208.jpg, cue_3.jpg,4,0.5865,1
5,1,288,4,48,4,93, man128.jpg, cue_4.jpg,2,0.5939,1
5,1,289,4,49,3,115, man157.jpg, cue_3.jpg,4,0.6294,1
5,1,290,4,50,2,32, man052.jpg, cue_2.jpg,1,0.7661,1
5,1,291,4,51,3,161, man213.jpg, cue_3.jpg,4,0.5901,1
5,1,292,4,52,2,138, man184.jpg, cue_2.jpg,1,0.6282,1
5,1,293,4,53,1,152, man202.jpg, cue_1.jpg,3,0.6511,1
5,1,294,4,54,4,46, man068.jpg, cue_4.jpg,1,0.5923,0
5,1,295,4,55,1,7, man014.jpg, cue_1.jpg,3,0.5718,1
5,1,296,4,56,2,232, man322.jpg, cue_2.jpg,1,0.6457,1
5,1,297,4,57,1,104, man141.jpg, cue_1.jpg,3,0.6185,1
5,1,298,4,58,4,43, man064.jpg, cue_4.jpg,2,0.784,1
5,1,299,4,59,2,227, man313.jpg, cue_2.jpg,1,0.6873,1
5,1,300,4,60,2,80, man112.jpg, cue_2.jpg,1,0.6599,1
5,1,301,4,61,1,233, man326.jpg, cue_1.jpg,3,0.6144,1
5,1,302,4,62,1,133, man178.jpg, cue_1.jpg,3,0.6382,1
5,1,303,4,63,4,74, man106.jpg, cue_4.jpg,2,0.5951,1
5,1,304,4,64,1,228, man314.jpg, cue_1.jpg,3,0.6503,1
5,1,305,4,65,3,34, man055.jpg, cue_3.jpg,4,0.6232,1
5,1,306,4,66,2,90, man124.jpg, cue_2.jpg,1,0.5662,1
5,1,307,4,67,3,22, man036.jpg, cue_3.jpg,4,1.1339,1
5,1,308,4,68,3,103, man139.jpg, cue_3.jpg,4,0.6538,1
5,1,309,4,69,2,15, man025.jpg, cue_2.jpg,1,0.66,1
5,1,310,4,70,1,27, man044.jpg, cue_1.jpg,3,0.7127,1
5,1,311,4,71,4,23, man039.jpg, cue_4.jpg,2,0.5859,1
5,1,312,4,72,4,211, man295.jpg, cue_4.jpg,2,0.6253,1
5,1,313,4,73,1,77, man109.jpg, cue_1.jpg,3,0.6318,1
5,1,314,4,74,1,112, man154.jpg, cue_1.jpg,3,0.6538,1
5,1,315,4,75,2,4, man007.jpg, cue_2.jpg,1,0.6253,1
5,1,316,4,76,3,191, man258.jpg, cue_3.jpg,4,0.6163,1
5,1,317,4,77,4,58, man085.jpg, cue_4.jpg,2,0.5585,1
5,1,318,4,78,3,51, man075.jpg, cue_3.jpg,4,0.6,1
5,1,319,4,79,1,181, man246.jpg, cue_1.jpg,2,0.879,0
5,1,320,4,80,4,162, man215.jpg, cue_4.jpg,2,1.3273,1
6,1,1,1,1,1,165, man222.jpg, cue_1.jpg,3,1.564,1
6,1,2,1,2,1,136, man182.jpg, cue_1.jpg,3,1.7699,1
6,1,3,1,3,1,20, man034.jpg, cue_1.jpg,2,1.7439,0
6,1,4,1,4,3,148, man197.jpg, cue_3.jpg,3,2.2199,0
6,1,5,1,5,2,151, man201.jpg, cue_2.jpg,3,1.75,0
6,1,6,1,6,4,142, man188.jpg, cue_4.jpg,4,1.9071,0
6,1,7,1,7,3,35, man056.jpg, cue_3.jpg,4,1.1282,1
6,1,8,1,8,3,162, man215.jpg, cue_3.jpg,4,0.9997,1
6,1,9,1,9,1,76, man108.jpg, cue_1.jpg,3,2.4475,1
6,1,10,1,10,2,53, man077.jpg, cue_2.jpg,1,1.56,1
6,1,11,1,11,3,223, man309.jpg, cue_3.jpg,2,2.1033,0
6,1,12,1,12,2,61, man089.jpg, cue_2.jpg,4,2.1009,0
6,1,13,1,13,2,51, man075.jpg, cue_2.jpg,4,2.0979,0
6,1,14,1,14,2,133, man178.jpg, cue_2.jpg,3,2.2393,0
6,1,15,1,15,4,7, man014.jpg, cue_4.jpg,2,1.4633,1
6,1,16,1,16,4,194, man262.jpg, cue_4.jpg,2,1.9626,1
6,1,17,1,17,4,107, man147.jpg, cue_4.jpg,1,2.1837,0
6,1,18,1,18,2,157, man208.jpg, cue_2.jpg,2,2.4342,0
6,1,19,1,19,3,8, man015.jpg, cue_3.jpg,4,1.4907,1
6,1,20,1,20,3,171, man233.jpg, cue_3.jpg,7,0,0
6,1,21,1,21,3,57, man084.jpg, cue_3.jpg,4,2.3539,1
6,1,22,1,22,2,96, man131.jpg, cue_2.jpg,1,1.8388,1
6,1,23,1,23,3,152, man202.jpg, cue_3.jpg,4,1.202,1
6,1,24,1,24,1,70, man101.jpg, cue_1.jpg,3,2.3199,1
6,1,25,1,25,3,197, man271.jpg, cue_3.jpg,4,1.9354,1
6,1,26,1,26,1,36, man057.jpg, cue_1.jpg,2,2.3499,0
6,1,27,1,27,2,153, man203.jpg, cue_2.jpg,1,1.3776,1
6,1,28,1,28,4,187, man253.jpg, cue_4.jpg,2,1.0958,1
6,1,29,1,29,2,101, man137.jpg, cue_2.jpg,1,1.1781,1
6,1,30,1,30,4,69, man100.jpg, cue_4.jpg,2,1.1277,1
6,1,31,1,31,1,30, man048.jpg, cue_1.jpg,2,2.2796,0
6,1,32,1,32,3,146, man193.jpg, cue_3.jpg,2,1.903,0
6,1,33,1,33,4,143, man189.jpg, cue_4.jpg,4,1.2373,0
6,1,34,1,34,2,121, man163.jpg, cue_2.jpg,1,1.5416,1
6,1,35,1,35,4,175, man238.jpg, cue_4.jpg,2,2.4225,1
6,1,36,1,36,3,201, man277.jpg, cue_3.jpg,4,2.0971,1
6,1,37,1,37,3,84, man117.jpg, cue_3.jpg,7,0,0
6,1,38,1,38,3,106, man145.jpg, cue_3.jpg,4,1.478,1
6,1,39,1,39,2,22, man036.jpg, cue_2.jpg,1,1.961,1
6,1,40,1,40,4,33, man054.jpg, cue_4.jpg,4,2.0708,0
6,1,41,1,41,3,100, man136.jpg, cue_3.jpg,3,2.0861,0
6,1,42,1,42,1,158, man209.jpg, cue_1.jpg,3,1.686,1
6,1,43,1,43,1,68, man099.jpg, cue_1.jpg,3,1.2942,1
6,1,44,1,44,3,230, man316.jpg, cue_3.jpg,4,1.9934,1
6,1,45,1,45,1,238, man332.jpg, cue_1.jpg,1,2.0702,0
6,1,46,1,46,1,23, man039.jpg, cue_1.jpg,3,2.0053,1
6,1,47,1,47,4,92, man126.jpg, cue_4.jpg,4,1.8731,0
6,1,48,1,48,3,221, man306.jpg, cue_3.jpg,4,1.2242,1
6,1,49,1,49,2,199, man275.jpg, cue_2.jpg,7,0,0
6,1,50,1,50,4,226, man312.jpg, cue_4.jpg,4,1.0758,0
6,1,51,1,51,1,213, man297.jpg, cue_1.jpg,4,1.7396,0
6,1,52,1,52,1,129, man171.jpg, cue_1.jpg,2,1.9299,0
6,1,53,1,53,1,183, man248.jpg, cue_1.jpg,7,0,0
6,1,54,1,54,2,131, man174.jpg, cue_2.jpg,1,1.5321,1
6,1,55,1,55,1,112, man154.jpg, cue_1.jpg,3,1.197,1
6,1,56,1,56,3,132, man177.jpg, cue_3.jpg,4,1.3873,1
6,1,57,1,57,2,40, man061.jpg, cue_2.jpg,4,1.7118,0
6,1,58,1,58,2,29, man047.jpg, cue_2.jpg,1,1.2157,1
6,1,59,1,59,2,17, man029.jpg, cue_2.jpg,3,1.4201,0
6,1,60,1,60,4,91, man125.jpg, cue_4.jpg,4,1.1751,0
6,1,61,1,61,1,211, man295.jpg, cue_1.jpg,4,1.5468,0
6,1,62,1,62,4,113, man155.jpg, cue_4.jpg,4,2.3053,0
6,1,63,1,63,1,215, man299.jpg, cue_1.jpg,3,1.5096,1
6,1,64,1,64,1,27, man044.jpg, cue_1.jpg,1,1.559,0
6,1,65,1,65,4,225, man311.jpg, cue_4.jpg,1,2.1078,0
6,1,66,1,66,2,39, man060.jpg, cue_2.jpg,3,1.4175,0
6,1,67,1,67,4,130, man172.jpg, cue_4.jpg,1,2.0193,0
6,1,68,1,68,3,188, man254.jpg, cue_3.jpg,4,2.1176,1
6,1,69,1,69,4,174, man237.jpg, cue_4.jpg,2,2.221,1
6,1,70,1,70,2,214, man298.jpg, cue_2.jpg,1,1.5684,1
6,1,71,1,71,4,156, man207.jpg, cue_4.jpg,3,1.6461,0
6,1,72,1,72,4,192, man259.jpg, cue_4.jpg,2,1.3735,1
6,1,73,1,73,3,169, man230.jpg, cue_3.jpg,1,1.5587,0
6,1,74,1,74,2,196, man268.jpg, cue_2.jpg,2,2.0112,0
6,1,75,1,75,2,90, man124.jpg, cue_2.jpg,1,2.0924,1
6,1,76,1,76,4,195, man267.jpg, cue_4.jpg,4,1.8463,0
6,1,77,1,77,1,236, man329.jpg, cue_1.jpg,7,0,0
6,1,78,1,78,3,150, man199.jpg, cue_3.jpg,4,1.2751,1
6,1,79,1,79,1,41, man062.jpg, cue_1.jpg,4,1.0774,0
6,1,80,1,80,4,144, man190.jpg, cue_4.jpg,1,1.9501,0
6,1,81,2,1,1,238, man332.jpg, cue_1.jpg,3,1.4542,1
6,1,82,2,2,2,157, man208.jpg, cue_2.jpg,1,1.2191,1
6,1,83,2,3,2,22, man036.jpg, cue_2.jpg,1,0.8481,1
6,1,84,2,4,3,221, man306.jpg, cue_3.jpg,4,0.7958,1
6,1,85,2,5,3,230, man316.jpg, cue_3.jpg,4,0.7454,1
6,1,86,2,6,4,226, man312.jpg, cue_4.jpg,2,0.7156,1
6,1,87,2,7,4,225, man311.jpg, cue_4.jpg,2,0.9418,1
6,1,88,2,8,2,40, man061.jpg, cue_2.jpg,1,0.8384,1
6,1,89,2,9,3,162, man215.jpg, cue_3.jpg,4,0.7235,1
6,1,90,2,10,2,133, man178.jpg, cue_2.jpg,1,1.0133,1
6,1,91,2,11,3,84, man117.jpg, cue_3.jpg,4,1.642,1
6,1,92,2,12,3,169, man230.jpg, cue_3.jpg,4,0.9511,1
6,1,93,2,13,1,27, man044.jpg, cue_1.jpg,3,1.1349,1
6,1,94,2,14,4,107, man147.jpg, cue_4.jpg,2,0.8799,1
6,1,95,2,15,4,144, man190.jpg, cue_4.jpg,3,1.5449,0
6,1,96,2,16,1,20, man034.jpg, cue_1.jpg,3,1.0082,1
6,1,97,2,17,4,187, man253.jpg, cue_4.jpg,2,0.822,1
6,1,98,2,18,2,199, man275.jpg, cue_2.jpg,1,1.0592,1
6,1,99,2,19,4,174, man237.jpg, cue_4.jpg,2,1.0475,1
6,1,100,2,20,3,35, man056.jpg, cue_3.jpg,4,0.7799,1
6,1,101,2,21,1,76, man108.jpg, cue_1.jpg,1,0.9074,0
6,1,102,2,22,2,51, man075.jpg, cue_2.jpg,3,1.3224,0
6,1,103,2,23,4,194, man262.jpg, cue_4.jpg,2,0.8732,1
6,1,104,2,24,3,132, man177.jpg, cue_3.jpg,4,0.7259,1
6,1,105,2,25,3,201, man277.jpg, cue_3.jpg,4,0.6958,1
6,1,106,2,26,3,188, man254.jpg, cue_3.jpg,4,0.6816,1
6,1,107,2,27,3,106, man145.jpg, cue_3.jpg,4,0.6862,1
6,1,108,2,28,4,69, man100.jpg, cue_4.jpg,2,0.9766,1
6,1,109,2,29,1,36, man057.jpg, cue_1.jpg,3,0.8882,1
6,1,110,2,30,4,195, man267.jpg, cue_4.jpg,4,0.8817,0
6,1,111,2,31,2,153, man203.jpg, cue_2.jpg,1,1.3795,1
6,1,112,2,32,1,215, man299.jpg, cue_1.jpg,3,0.9858,1
6,1,113,2,33,4,156, man207.jpg, cue_4.jpg,3,0.5931,0
6,1,114,2,34,1,236, man329.jpg, cue_1.jpg,3,1.5977,1
6,1,115,2,35,4,7, man014.jpg, cue_4.jpg,2,1.8355,1
6,1,116,2,36,3,152, man202.jpg, cue_3.jpg,4,0.9095,1
6,1,117,2,37,4,142, man188.jpg, cue_4.jpg,2,0.8086,1
6,1,118,2,38,3,171, man233.jpg, cue_3.jpg,4,0.8873,1
6,1,119,2,39,4,92, man126.jpg, cue_4.jpg,2,0.9777,1
6,1,120,2,40,1,158, man209.jpg, cue_1.jpg,3,1.0975,1
6,1,121,2,41,2,90, man124.jpg, cue_2.jpg,1,0.9717,1
6,1,122,2,42,2,121, man163.jpg, cue_2.jpg,1,0.7226,1
6,1,123,2,43,1,70, man101.jpg, cue_1.jpg,3,0.837,1
6,1,124,2,44,2,151, man201.jpg, cue_2.jpg,1,1.4736,1
6,1,125,2,45,2,17, man029.jpg, cue_2.jpg,1,0.9475,1
6,1,126,2,46,2,214, man298.jpg, cue_2.jpg,1,0.6842,1
6,1,127,2,47,1,183, man248.jpg, cue_1.jpg,3,0.9437,1
6,1,128,2,48,1,112, man154.jpg, cue_1.jpg,3,0.6952,1
6,1,129,2,49,3,57, man084.jpg, cue_3.jpg,4,0.7146,1
6,1,130,2,50,2,61, man089.jpg, cue_2.jpg,2,1.0678,0
6,1,131,2,51,2,101, man137.jpg, cue_2.jpg,1,0.773,1
6,1,132,2,52,3,8, man015.jpg, cue_3.jpg,4,1.5257,1
6,1,133,2,53,3,223, man309.jpg, cue_3.jpg,2,1.4945,0
6,1,134,2,54,3,146, man193.jpg, cue_3.jpg,4,1.6145,1
6,1,135,2,55,4,113, man155.jpg, cue_4.jpg,2,0.8109,1
6,1,136,2,56,1,41, man062.jpg, cue_1.jpg,1,1.4179,0
6,1,137,2,57,4,192, man259.jpg, cue_4.jpg,2,0.8998,1
6,1,138,2,58,3,100, man136.jpg, cue_3.jpg,4,0.9243,1
6,1,139,2,59,1,136, man182.jpg, cue_1.jpg,3,0.8242,1
6,1,140,2,60,1,68, man099.jpg, cue_1.jpg,1,1.4617,0
6,1,141,2,61,4,33, man054.jpg, cue_4.jpg,2,1.4393,1
6,1,142,2,62,2,29, man047.jpg, cue_2.jpg,1,0.9305,1
6,1,143,2,63,3,197, man271.jpg, cue_3.jpg,4,0.7789,1
6,1,144,2,64,1,213, man297.jpg, cue_1.jpg,3,1.2263,1
6,1,145,2,65,1,129, man171.jpg, cue_1.jpg,3,0.8882,1
6,1,146,2,66,3,150, man199.jpg, cue_3.jpg,4,1.5051,1
6,1,147,2,67,4,91, man125.jpg, cue_4.jpg,2,1.0431,1
6,1,148,2,68,1,30, man048.jpg, cue_1.jpg,4,1.383,0
6,1,149,2,69,2,53, man077.jpg, cue_2.jpg,1,1.0758,1
6,1,150,2,70,1,23, man039.jpg, cue_1.jpg,3,1.0141,1
6,1,151,2,71,2,131, man174.jpg, cue_2.jpg,1,0.9079,1
6,1,152,2,72,1,165, man222.jpg, cue_1.jpg,2,1.4943,0
6,1,153,2,73,3,148, man197.jpg, cue_3.jpg,4,1.5012,1
6,1,154,2,74,2,96, man131.jpg, cue_2.jpg,1,1.1035,1
6,1,155,2,75,2,196, man268.jpg, cue_2.jpg,1,0.8821,1
6,1,156,2,76,1,211, man295.jpg, cue_1.jpg,3,1.0525,1
6,1,157,2,77,4,130, man172.jpg, cue_4.jpg,2,1.0562,1
6,1,158,2,78,4,143, man189.jpg, cue_4.jpg,2,1.363,1
6,1,159,2,79,4,175, man238.jpg, cue_4.jpg,2,0.8112,1
6,1,160,2,80,2,39, man060.jpg, cue_2.jpg,1,1.5446,1
6,1,161,3,1,2,53, man077.jpg, cue_2.jpg,1,1.026,1
6,1,162,3,2,1,70, man101.jpg, cue_1.jpg,3,0.8556,1
6,1,163,3,3,4,226, man312.jpg, cue_4.jpg,2,1.3631,1
6,1,164,3,4,4,195, man267.jpg, cue_4.jpg,4,1.1145,0
6,1,165,3,5,3,35, man056.jpg, cue_3.jpg,4,0.992,1
6,1,166,3,6,2,39, man060.jpg, cue_2.jpg,1,1.016,1
6,1,167,3,7,4,156, man207.jpg, cue_4.jpg,3,1.3578,0
6,1,168,3,8,1,183, man248.jpg, cue_1.jpg,3,0.8746,1
6,1,169,3,9,1,20, man034.jpg, cue_1.jpg,3,0.92,1
6,1,170,3,10,4,225, man311.jpg, cue_4.jpg,2,0.9773,1
6,1,171,3,11,3,100, man136.jpg, cue_3.jpg,4,1.033,1
6,1,172,3,12,2,90, man124.jpg, cue_2.jpg,1,1.8378,1
6,1,173,3,13,3,132, man177.jpg, cue_3.jpg,4,0.8484,1
6,1,174,3,14,1,165, man222.jpg, cue_1.jpg,3,0.8609,1
6,1,175,3,15,1,68, man099.jpg, cue_1.jpg,3,0.8086,1
6,1,176,3,16,4,91, man125.jpg, cue_4.jpg,2,0.9512,1
6,1,177,3,17,4,174, man237.jpg, cue_4.jpg,2,0.9115,1
6,1,178,3,18,4,192, man259.jpg, cue_4.jpg,2,0.842,1
6,1,179,3,19,3,8, man015.jpg, cue_3.jpg,4,0.8549,1
6,1,180,3,20,4,69, man100.jpg, cue_4.jpg,2,0.8198,1
6,1,181,3,21,2,214, man298.jpg, cue_2.jpg,1,0.7219,1
6,1,182,3,22,1,236, man329.jpg, cue_1.jpg,3,1.4272,1
6,1,183,3,23,4,142, man188.jpg, cue_4.jpg,2,0.8717,1
6,1,184,3,24,3,84, man117.jpg, cue_3.jpg,4,0.8195,1
6,1,185,3,25,3,152, man202.jpg, cue_3.jpg,4,0.7853,1
6,1,186,3,26,1,36, man057.jpg, cue_1.jpg,3,0.849,1
6,1,187,3,27,3,162, man215.jpg, cue_3.jpg,4,0.7335,1
6,1,188,3,28,1,129, man171.jpg, cue_1.jpg,3,1.1029,1
6,1,189,3,29,3,197, man271.jpg, cue_3.jpg,4,0.7533,1
6,1,190,3,30,3,188, man254.jpg, cue_3.jpg,4,0.6899,1
6,1,191,3,31,4,130, man172.jpg, cue_4.jpg,2,0.8526,1
6,1,192,3,32,2,153, man203.jpg, cue_2.jpg,1,0.7694,1
6,1,193,3,33,2,196, man268.jpg, cue_2.jpg,1,0.7369,1
6,1,194,3,34,2,40, man061.jpg, cue_2.jpg,1,0.6896,1
6,1,195,3,35,1,211, man295.jpg, cue_1.jpg,3,1.0458,1
6,1,196,3,36,2,131, man174.jpg, cue_2.jpg,1,0.7296,1
6,1,197,3,37,3,201, man277.jpg, cue_3.jpg,4,1.1302,1
6,1,198,3,38,4,187, man253.jpg, cue_4.jpg,2,1.0037,1
6,1,199,3,39,3,169, man230.jpg, cue_3.jpg,4,1.6178,1
6,1,200,3,40,4,92, man126.jpg, cue_4.jpg,2,0.6693,1
6,1,201,3,41,4,33, man054.jpg, cue_4.jpg,2,0.9135,1
6,1,202,3,42,1,76, man108.jpg, cue_1.jpg,3,1.2108,1
6,1,203,3,43,3,171, man233.jpg, cue_3.jpg,4,0.7125,1
6,1,204,3,44,4,113, man155.jpg, cue_4.jpg,2,0.8259,1
6,1,205,3,45,1,213, man297.jpg, cue_1.jpg,2,1.3033,0
6,1,206,3,46,2,133, man178.jpg, cue_2.jpg,1,0.9511,1
6,1,207,3,47,2,61, man089.jpg, cue_2.jpg,1,0.7505,1
6,1,208,3,48,2,121, man163.jpg, cue_2.jpg,1,0.7201,1
6,1,209,3,49,3,230, man316.jpg, cue_3.jpg,4,1.0099,1
6,1,210,3,50,1,23, man039.jpg, cue_1.jpg,3,1.288,1
6,1,211,3,51,2,151, man201.jpg, cue_2.jpg,1,0.8173,1
6,1,212,3,52,4,144, man190.jpg, cue_4.jpg,2,0.8164,1
6,1,213,3,53,3,223, man309.jpg, cue_3.jpg,4,1.3098,1
6,1,214,3,54,3,146, man193.jpg, cue_3.jpg,4,1.27,1
6,1,215,3,55,3,57, man084.jpg, cue_3.jpg,4,0.786,1
6,1,216,3,56,1,238, man332.jpg, cue_1.jpg,3,1.4579,1
6,1,217,3,57,3,221, man306.jpg, cue_3.jpg,4,0.7409,1
6,1,218,3,58,4,107, man147.jpg, cue_4.jpg,2,0.9182,1
6,1,219,3,59,2,96, man131.jpg, cue_2.jpg,1,1.0395,1
6,1,220,3,60,1,30, man048.jpg, cue_1.jpg,3,0.9964,1
6,1,221,3,61,4,143, man189.jpg, cue_4.jpg,2,1.4174,1
6,1,222,3,62,1,136, man182.jpg, cue_1.jpg,3,0.751,1
6,1,223,3,63,2,51, man075.jpg, cue_2.jpg,1,1.7755,1
6,1,224,3,64,2,199, man275.jpg, cue_2.jpg,1,0.7584,1
6,1,225,3,65,3,148, man197.jpg, cue_3.jpg,4,1.6698,1
6,1,226,3,66,1,215, man299.jpg, cue_1.jpg,1,1.3287,0
6,1,227,3,67,3,106, man145.jpg, cue_3.jpg,4,0.7176,1
6,1,228,3,68,1,158, man209.jpg, cue_1.jpg,3,0.9764,1
6,1,229,3,69,2,22, man036.jpg, cue_2.jpg,1,0.8077,1
6,1,230,3,70,2,101, man137.jpg, cue_2.jpg,1,0.6942,1
6,1,231,3,71,2,17, man029.jpg, cue_2.jpg,1,0.9687,1
6,1,232,3,72,4,194, man262.jpg, cue_4.jpg,2,0.8153,1
6,1,233,3,73,1,27, man044.jpg, cue_1.jpg,3,0.91,1
6,1,234,3,74,4,175, man238.jpg, cue_4.jpg,2,0.7128,1
6,1,235,3,75,2,29, man047.jpg, cue_2.jpg,1,0.6984,1
6,1,236,3,76,2,157, man208.jpg, cue_2.jpg,1,0.9733,1
6,1,237,3,77,4,7, man014.jpg, cue_4.jpg,2,1.0128,1
6,1,238,3,78,1,112, man154.jpg, cue_1.jpg,3,0.7456,1
6,1,239,3,79,1,41, man062.jpg, cue_1.jpg,3,1.5461,1
6,1,240,3,80,3,150, man199.jpg, cue_3.jpg,4,0.8106,1
6,1,241,4,1,4,107, man147.jpg, cue_4.jpg,2,0.8418,1
6,1,242,4,2,3,35, man056.jpg, cue_3.jpg,4,0.7276,1
6,1,243,4,3,4,69, man100.jpg, cue_4.jpg,2,0.9046,1
6,1,244,4,4,4,174, man237.jpg, cue_4.jpg,2,1.0752,1
6,1,245,4,5,1,238, man332.jpg, cue_1.jpg,3,0.7271,1
6,1,246,4,6,2,51, man075.jpg, cue_2.jpg,1,0.8397,1
6,1,247,4,7,3,132, man177.jpg, cue_3.jpg,4,0.7253,1
6,1,248,4,8,4,143, man189.jpg, cue_4.jpg,2,1.0638,1
6,1,249,4,9,3,148, man197.jpg, cue_3.jpg,4,0.7473,1
6,1,250,4,10,1,211, man295.jpg, cue_1.jpg,3,0.812,1
6,1,251,4,11,2,90, man124.jpg, cue_2.jpg,1,0.7773,1
6,1,252,4,12,3,150, man199.jpg, cue_3.jpg,4,0.6493,1
6,1,253,4,13,2,22, man036.jpg, cue_2.jpg,1,0.7496,1
6,1,254,4,14,1,112, man154.jpg, cue_1.jpg,3,1.4873,1
6,1,255,4,15,2,29, man047.jpg, cue_2.jpg,1,0.7196,1
6,1,256,4,16,1,23, man039.jpg, cue_1.jpg,3,0.7217,1
6,1,257,4,17,4,7, man014.jpg, cue_4.jpg,2,1.1096,1
6,1,258,4,18,4,142, man188.jpg, cue_4.jpg,2,1.0788,1
6,1,259,4,19,1,183, man248.jpg, cue_1.jpg,3,0.7458,1
6,1,260,4,20,4,226, man312.jpg, cue_4.jpg,2,0.7149,1
6,1,261,4,21,3,8, man015.jpg, cue_3.jpg,4,0.666,1
6,1,262,4,22,2,151, man201.jpg, cue_2.jpg,1,0.7209,1
6,1,263,4,23,2,157, man208.jpg, cue_2.jpg,1,0.6594,1
6,1,264,4,24,2,17, man029.jpg, cue_2.jpg,1,0.8223,1
6,1,265,4,25,1,68, man099.jpg, cue_1.jpg,3,0.726,1
6,1,266,4,26,1,158, man209.jpg, cue_1.jpg,3,1.2558,1
6,1,267,4,27,3,57, man084.jpg, cue_3.jpg,4,0.7235,1
6,1,268,4,28,4,130, man172.jpg, cue_4.jpg,2,0.8055,1
6,1,269,4,29,2,96, man131.jpg, cue_2.jpg,1,0.8521,1
6,1,270,4,30,2,153, man203.jpg, cue_2.jpg,1,0.6232,1
6,1,271,4,31,4,187, man253.jpg, cue_4.jpg,2,0.7901,1
6,1,272,4,32,3,146, man193.jpg, cue_3.jpg,4,1.206,1
6,1,273,4,33,4,195, man267.jpg, cue_4.jpg,2,0.8518,1
6,1,274,4,34,3,162, man215.jpg, cue_3.jpg,4,0.7517,1
6,1,275,4,35,4,91, man125.jpg, cue_4.jpg,2,0.8817,1
6,1,276,4,36,1,213, man297.jpg, cue_1.jpg,2,1.5158,0
6,1,277,4,37,4,144, man190.jpg, cue_4.jpg,2,1.4431,1
6,1,278,4,38,1,76, man108.jpg, cue_1.jpg,3,1.4311,1
6,1,279,4,39,1,30, man048.jpg, cue_1.jpg,3,0.7479,1
6,1,280,4,40,2,199, man275.jpg, cue_2.jpg,1,0.7641,1
6,1,281,4,41,1,27, man044.jpg, cue_1.jpg,3,1.0677,1
6,1,282,4,42,2,101, man137.jpg, cue_2.jpg,1,0.6873,1
6,1,283,4,43,2,39, man060.jpg, cue_2.jpg,1,0.9948,1
6,1,284,4,44,3,106, man145.jpg, cue_3.jpg,4,0.7121,1
6,1,285,4,45,3,197, man271.jpg, cue_3.jpg,4,0.683,1
6,1,286,4,46,2,121, man163.jpg, cue_2.jpg,1,0.6382,1
6,1,287,4,47,1,136, man182.jpg, cue_1.jpg,3,0.6591,1
