SN,Btw,Trial,cSrc,cCue,cPE,IMidx,IMname,CueName,Resp,RT,Corr,Conf,cRT,aResp,aRT,aCorr,aConf,aCRT
1,1,1,2,4,4,226, man312.jpg, cue_4.jpg,2,12.9341,1,2,1.7832,2,1.3755,1,4,2.6891
1,1,2,3,0,0,195, man267.jpg, ,3,2.3422,1,4,1.1078,7,0,7,7,0
1,1,3,2,1,1,206, man283.jpg, cue_1.jpg,2,11.8021,1,2,2.4906,3,2.0159,1,3,2.5416
1,1,4,3,0,0,144, man190.jpg, ,3,1.9904,1,4,1.1409,7,0,7,7,0
1,1,5,1,2,3,81, man113.jpg, cue_2.jpg,1,8.8575,1,3,2.0062,1,1.4385,1,4,1.8925
1,1,6,2,3,2,4, man007.jpg, cue_3.jpg,2,5.4662,1,3,1.0125,4,3.2634,1,4,1.215
1,1,7,1,3,2,125, man167.jpg, cue_3.jpg,2,3.5862,2,3,2.1704,4,2.9755,1,4,1.1225
1,1,8,2,2,3,193, man260.jpg, cue_2.jpg,1,3.8809,3,3,0.8219,1,1.3761,1,3,3.1447
1,1,9,3,0,0,14, man024.jpg, ,3,2.2336,1,4,2.683,7,0,7,7,0
1,1,10,3,0,0,1, man002.jpg, ,3,1.1846,1,4,1.0703,7,0,7,7,0
1,1,11,3,0,0,42, man063.jpg, ,3,1.6069,1,3,1.7469,7,0,7,7,0
1,1,12,2,3,2,236, man329.jpg, cue_3.jpg,2,4.8309,1,2,4.2726,4,3.0714,1,2,1.8073
1,1,13,1,4,4,20, man034.jpg, cue_4.jpg,1,3.5928,1,2,3.7935,2,1.7281,1,3,1.6098
1,1,14,3,0,0,40, man061.jpg, ,3,2.7292,1,4,1.3048,7,0,7,7,0
1,1,15,3,0,0,119, man161.jpg, ,3,2.4075,1,3,1.6804,7,0,7,7,0
1,1,16,1,3,2,131, man174.jpg, cue_3.jpg,2,1.9204,2,4,1.0395,4,1.2151,1,4,0.9102
1,1,17,3,0,0,163, man217.jpg, ,3,1.1188,1,4,1.6157,7,0,7,7,0
1,1,18,3,0,0,214, man298.jpg, ,3,1.0248,1,3,2.0343,7,0,7,7,0
1,1,19,2,2,3,70, man101.jpg, cue_2.jpg,1,3.6213,3,4,1.2607,1,1.088,1,4,3.8495
1,1,20,2,3,2,146, man193.jpg, cue_3.jpg,3,12.5577,0,1,1.5188,7,0,7,7,0
1,1,21,1,3,2,37, man058.jpg, cue_3.jpg,2,6.8822,2,3,1.5524,4,0.9597,1,4,1.417
1,1,22,1,4,4,83, man115.jpg, cue_4.jpg,1,4.2906,1,2,3.2461,2,3.1035,1,4,0.867
1,1,23,3,0,0,97, man133.jpg, ,3,1.2195,1,4,1.7759,7,0,7,7,0
1,1,24,3,0,0,129, man171.jpg, ,3,1.4829,1,4,0.6672,7,0,7,7,0
1,1,25,1,3,2,169, man230.jpg, cue_3.jpg,1,3.1422,1,4,0.786,4,0.8637,1,4,1.0353
1,1,26,1,2,3,93, man128.jpg, cue_2.jpg,1,3.7177,1,3,4.6656,1,1.9197,1,4,0.9326
1,1,27,3,0,0,105, man144.jpg, ,3,1.6665,1,4,0.987,7,0,7,7,0
1,1,28,2,1,1,182, man247.jpg, cue_1.jpg,2,3.1766,1,3,1.2015,3,1.536,1,4,1.3748
1,1,29,1,4,4,127, man169.jpg, cue_4.jpg,2,4.9066,2,4,1.5314,2,1.6315,1,3,1.4793
1,1,30,2,3,2,108, man149.jpg, cue_3.jpg,2,3.3264,1,3,11.4741,4,1.8879,1,2,1.217
1,1,31,1,3,2,218, man303.jpg, cue_3.jpg,2,7.971,2,3,1.5228,4,1.2157,1,4,1.9204
1,1,32,2,1,1,79, man111.jpg, cue_1.jpg,2,4.9649,1,2,0.7244,3,1.5042,1,4,1.5103
1,1,33,3,0,0,54, man078.jpg, ,3,1.1326,1,4,0.6029,7,0,7,7,0
1,1,34,3,0,0,166, man223.jpg, ,3,2.5049,1,4,0.5274,7,0,7,7,0
1,1,35,2,4,4,212, man296.jpg, cue_4.jpg,2,3.4223,1,4,0.5581,2,0.6401,1,4,1.0028
1,1,36,2,2,3,157, man208.jpg, cue_2.jpg,1,6.0223,3,3,1.4655,1,1.1199,1,4,1.0685
1,1,37,2,2,3,10, man017.jpg, cue_2.jpg,2,1.861,1,3,1.2706,1,4.5758,1,2,1.0883
1,1,38,1,2,3,126, man168.jpg, cue_2.jpg,2,6.4371,2,4,1.0499,1,0.672,1,2,0.6718
1,1,39,3,0,0,111, man153.jpg, ,3,1.7699,1,4,0.7191,7,0,7,7,0
1,1,40,3,0,0,238, man332.jpg, ,3,2.1178,1,2,0.7954,7,0,7,7,0
1,1,41,3,0,0,112, man154.jpg, ,3,1.057,1,3,0.532,7,0,7,7,0
1,1,42,3,0,0,215, man299.jpg, ,3,0.9629,1,4,1.0505,7,0,7,7,0
1,1,43,3,0,0,51, man075.jpg, ,3,1.1875,1,4,0.5935,7,0,7,7,0
1,1,44,1,2,3,74, man106.jpg, cue_2.jpg,1,2.8939,1,3,2.2578,1,0.9916,1,4,1.4513
1,1,45,2,4,4,170, man231.jpg, cue_4.jpg,2,2.9475,1,4,1.0473,2,0.8965,1,4,0.997
1,1,46,3,0,0,203, man279.jpg, ,3,1.2802,1,3,1.7541,7,0,7,7,0
1,1,47,3,0,0,66, man095.jpg, ,3,1.1263,1,4,0.5347,7,0,7,7,0
1,1,48,1,2,3,3, man005.jpg, cue_2.jpg,1,6.3415,1,2,0.8273,1,0.7035,1,2,2.8585
1,1,49,1,2,3,72, man104.jpg, cue_2.jpg,1,3.3042,1,3,1.5168,1,0.5761,1,4,0.5791
1,1,50,2,3,2,96, man131.jpg, cue_3.jpg,1,4.6088,3,4,0.591,3,3.7438,0,1,1.4802
1,1,51,2,1,1,201, man277.jpg, cue_1.jpg,1,3.2631,3,3,0.9501,2,1.7278,0,1,2.3088
1,1,52,1,4,4,156, man207.jpg, cue_4.jpg,2,2.5054,2,3,4.0799,2,1.0879,1,4,2.0221
1,1,53,3,0,0,87, man121.jpg, ,3,1.0627,1,4,0.7938,7,0,7,7,0
1,1,54,2,2,3,59, man086.jpg, cue_2.jpg,2,3.8375,1,4,3.7073,1,0.768,1,4,0.6718
1,1,55,3,0,0,181, man246.jpg, ,3,1.0969,1,4,1.019,7,0,7,7,0
1,1,56,2,2,3,57, man084.jpg, cue_2.jpg,2,2.4664,1,3,2.2212,1,1.4082,1,3,2.0518
1,1,57,1,1,1,188, man254.jpg, cue_1.jpg,2,5.1231,2,2,7.2275,3,1.4394,1,4,0.6397
1,1,58,1,1,1,162, man215.jpg, cue_1.jpg,1,8.0102,1,4,1.9143,3,1.184,1,4,0.9993
1,1,59,2,2,3,67, man096.jpg, cue_2.jpg,1,6.2107,3,3,5.1331,1,1.3758,1,2,0.8423
1,1,60,2,1,1,30, man048.jpg, cue_1.jpg,2,2.2699,1,4,0.9098,3,3.0402,1,4,1.8633
1,1,61,1,1,1,186, man252.jpg, cue_1.jpg,1,3.4861,1,4,1.0192,3,0.9604,1,4,2.3441
1,1,62,3,0,0,211, man295.jpg, ,3,1.0184,1,4,0.7193,7,0,7,7,0
1,1,63,2,4,4,194, man262.jpg, cue_4.jpg,1,2.3103,3,4,0.8211,2,1.2161,1,4,1.199
1,1,64,3,0,0,183, man248.jpg, ,3,1.5055,1,4,0.6264,7,0,7,7,0
1,1,65,2,4,4,227, man313.jpg, cue_4.jpg,1,1.5496,3,3,0.8273,2,0.6436,1,4,1.8356
1,1,66,1,2,3,240, man336.jpg, cue_2.jpg,1,3.0465,1,2,0.8544,1,0.9917,1,4,1.959
1,1,67,2,2,3,75, man107.jpg, cue_2.jpg,1,1.7395,3,4,0.5622,2,0.8317,0,4,1.7347
1,1,68,3,0,0,232, man322.jpg, ,3,2.4353,1,4,0.6351,7,0,7,7,0
1,1,69,3,0,0,11, man019.jpg, ,3,1.2235,1,2,0.8822,7,0,7,7,0
1,1,70,2,1,1,142, man188.jpg, cue_1.jpg,1,2.3719,3,2,1.3919,3,0.7679,1,4,0.9961
1,1,71,2,3,2,150, man199.jpg, cue_3.jpg,1,2.0154,3,3,1.4992,4,2.2391,1,4,0.7158
1,1,72,2,2,3,100, man136.jpg, cue_2.jpg,1,5.2203,3,2,0.8877,1,2.3676,1,4,1.1197
1,1,73,1,1,1,120, man162.jpg, cue_1.jpg,1,2.822,1,4,0.7833,3,1.1199,1,4,2.3508
1,1,74,2,3,2,140, man186.jpg, cue_3.jpg,1,2.209,3,4,1.2361,3,3.648,0,1,1.3823
1,1,75,1,1,1,189, man255.jpg, cue_1.jpg,1,2.4973,1,4,0.5685,3,1.0241,1,4,0.5489
1,1,76,3,0,0,15, man025.jpg, ,3,1.0252,1,4,0.4077,7,0,7,7,0
1,1,77,1,1,1,202, man278.jpg, cue_1.jpg,1,4.0122,1,2,3.4114,3,1.2798,1,4,1.8381
1,1,78,1,2,3,161, man213.jpg, cue_2.jpg,1,5.0919,1,4,0.4641,1,0.672,1,4,0.4791
1,1,79,1,4,4,19, man032.jpg, cue_4.jpg,1,1.5353,1,4,0.4634,2,1.6634,1,4,2.8529
1,1,80,1,4,4,223, man309.jpg, cue_4.jpg,1,3.7786,1,3,1.2037,2,2.5597,1,4,0.6441
1,1,81,2,3,2,61, man089.jpg, cue_3.jpg,1,1.9353,3,3,1.4217,4,0.8636,1,4,0.5872
1,1,82,3,0,0,33, man054.jpg, ,3,0.9379,1,4,0.594,7,0,7,7,0
1,1,83,1,4,4,173, man236.jpg, cue_4.jpg,1,1.4381,1,3,1.0093,2,1.0236,1,4,1.7702
1,1,84,2,2,3,222, man307.jpg, cue_2.jpg,1,6.6302,3,4,1.5517,1,3.1353,1,2,0.8088
1,1,85,3,0,0,9, man016.jpg, ,3,1.4538,1,4,0.5924,7,0,7,7,0
1,1,86,1,3,2,12, man022.jpg, cue_3.jpg,1,6.2211,1,2,1.4322,3,1.4393,0,2,0.6212
1,1,87,3,0,0,55, man079.jpg, ,3,1.2585,1,4,0.4374,7,0,7,7,0
1,1,88,2,1,1,109, man150.jpg, cue_1.jpg,2,7.0483,1,3,1.5204,3,3.7441,1,4,0.7706
1,1,89,1,1,1,91, man125.jpg, cue_1.jpg,2,2.5677,2,4,1.4337,3,1.6962,1,2,1.8636
1,1,90,2,2,3,158, man209.jpg, cue_2.jpg,1,6.159,3,2,1.0832,1,0.7678,1,3,1.0704
1,1,91,3,0,0,191, man258.jpg, ,3,2.9511,1,3,1.1788,7,0,7,7,0
1,1,92,2,1,1,145, man191.jpg, cue_1.jpg,2,3.8355,1,2,0.9088,3,0.9278,1,4,1.107
1,1,93,1,1,1,113, man155.jpg, cue_1.jpg,2,4.7704,2,2,1.1018,3,0.6718,1,4,0.5139
1,1,94,1,1,1,239, man333.jpg, cue_1.jpg,1,1.6335,1,4,0.7318,3,1.5347,1,4,0.5571
1,1,95,2,4,4,176, man240.jpg, cue_4.jpg,2,4.6485,1,4,1.0801,2,3.0072,1,4,0.8441
1,1,96,3,0,0,233, man326.jpg, ,3,1.2775,1,4,0.4077,7,0,7,7,0
1,1,97,1,3,2,80, man112.jpg, cue_3.jpg,1,1.58,1,3,0.5379,4,0.7034,1,4,0.5482
1,1,98,1,1,1,26, man042.jpg, cue_1.jpg,2,6.4667,2,3,1.5232,3,1.8562,1,4,0.9643
1,1,99,3,0,0,229, man315.jpg, ,3,1.217,1,4,0.3975,7,0,7,7,0
1,1,100,2,2,3,46, man068.jpg, cue_2.jpg,1,1.474,3,3,0.9798,1,0.7036,1,4,0.5243
1,1,101,3,0,0,213, man297.jpg, ,2,6.2031,0,2,1.5558,2,1.3438,0,2,1.0683
1,1,102,2,4,4,114, man156.jpg, cue_4.jpg,2,1.6367,1,4,0.5273,2,1.6961,1,4,0.7367
1,1,103,3,0,0,65, man094.jpg, ,3,1.2554,1,4,0.338,7,0,7,7,0
1,1,104,2,1,1,159, man210.jpg, cue_1.jpg,2,2.8256,1,2,0.5947,3,0.8317,1,4,0.5819
1,1,105,1,1,1,84, man117.jpg, cue_1.jpg,1,2.3384,1,4,1.8048,3,6.8155,1,3,1.1574
1,1,106,3,0,0,82, man114.jpg, ,3,1.1301,1,4,0.4107,7,0,7,7,0
1,1,107,3,0,0,235, man328.jpg, ,3,1.0073,1,4,0.3057,7,0,7,7,0
1,1,108,1,4,4,31, man050.jpg, cue_4.jpg,1,2.9726,1,3,1.8074,2,3.5194,1,4,0.9434
1,1,109,2,1,1,209, man289.jpg, cue_1.jpg,1,5.1014,3,4,0.9514,3,1.3115,1,2,0.7433
1,1,110,3,0,0,184, man249.jpg, ,3,1.8852,1,4,1.0375,7,0,7,7,0
1,1,111,3,0,0,18, man031.jpg, ,3,1.2233,1,3,0.5314,7,0,7,7,0
1,1,112,1,4,4,128, man170.jpg, cue_4.jpg,1,10.2104,1,3,1.0139,2,0.928,1,2,0.9316
1,1,113,3,0,0,94, man129.jpg, ,3,1.9217,1,4,0.8156,7,0,7,7,0
1,1,114,3,0,0,132, man177.jpg, ,3,0.7395,1,4,0.3717,7,0,7,7,0
1,1,115,2,2,3,225, man311.jpg, cue_2.jpg,2,1.6098,1,3,4.342,1,3.296,1,4,1.1885
1,1,116,2,2,3,177, man241.jpg, cue_2.jpg,2,5.32,1,2,0.6623,1,0.6396,1,4,0.4491
1,1,117,3,0,0,27, man044.jpg, ,3,1.3473,1,4,0.4107,7,0,7,7,0
1,1,118,1,3,2,231, man321.jpg, cue_3.jpg,2,2.3667,2,3,0.667,4,0.6075,1,4,0.5806
1,1,119,3,0,0,39, man060.jpg, ,3,2.4014,1,3,0.7309,7,0,7,7,0
1,1,120,1,2,3,77, man109.jpg, cue_2.jpg,1,2.1783,1,2,1.3995,1,0.8958,1,4,0.4223
1,1,121,1,2,3,154, man205.jpg, cue_2.jpg,1,6.826,1,4,1.0189,1,0.9275,1,4,0.6169
1,1,122,1,3,2,192, man259.jpg, cue_3.jpg,2,6.5005,2,3,6.4517,4,8.8316,1,2,1.698
1,1,123,2,1,1,121, man163.jpg, cue_1.jpg,1,2.1116,3,4,1.654,3,1.9522,1,4,0.6552
1,1,124,3,0,0,110, man152.jpg, ,3,1.4809,1,4,0.4748,7,0,7,7,0
1,1,125,2,4,4,205, man282.jpg, cue_4.jpg,2,1.4206,1,4,0.4322,2,25.6637,1,2,1.0332
1,1,126,2,2,3,139, man185.jpg, cue_2.jpg,1,2.8834,3,3,1.0504,1,1.728,1,4,0.7408
1,1,127,2,3,2,101, man137.jpg, cue_3.jpg,1,2.5394,3,4,1.1361,4,1.4075,1,2,1.6685
1,1,128,2,3,2,49, man072.jpg, cue_3.jpg,1,3.0438,3,2,1.7799,4,2.2715,1,4,0.9372
1,1,129,1,1,1,38, man059.jpg, cue_1.jpg,2,1.4151,2,3,0.6668,3,1.44,1,4,0.4821
1,1,130,2,1,1,58, man085.jpg, cue_1.jpg,2,4.3229,1,4,1.004,3,0.7355,1,4,0.5151
1,1,131,1,3,2,175, man238.jpg, cue_3.jpg,1,1.5387,1,4,2.8976,4,1.0554,1,4,1.003
1,1,132,3,0,0,6, man013.jpg, ,3,1.1934,1,2,1.5237,7,0,7,7,0
1,1,133,1,3,2,137, man183.jpg, cue_3.jpg,2,1.6414,2,4,1.7162,3,5.3114,0,2,1.1328
1,1,134,3,0,0,16, man027.jpg, ,3,1.1222,1,4,3.7629,7,0,7,7,0
1,1,135,2,3,2,237, man330.jpg, cue_3.jpg,2,2.6348,1,2,0.7946,4,0.8319,1,4,0.5497
1,1,136,2,4,4,196, man268.jpg, cue_4.jpg,1,2.853,3,2,0.7167,2,1.6638,1,4,0.7101
1,1,137,3,0,0,36, man057.jpg, ,3,1.4712,1,4,0.5931,7,0,7,7,0
1,1,138,2,3,2,44, man066.jpg, cue_3.jpg,1,1.2617,3,4,0.5684,4,1.2477,1,4,0.5234
1,1,139,2,2,3,107, man147.jpg, cue_2.jpg,1,1.675,3,3,1.2682,1,0.7682,1,4,0.5262
1,1,140,2,1,1,53, man077.jpg, cue_1.jpg,2,1.565,1,2,1.0188,3,4.3195,1,2,0.7456
1,1,141,2,4,4,29, man047.jpg, cue_4.jpg,2,1.7924,1,4,0.6608,2,0.7038,1,4,0.3948
1,1,142,2,2,3,124, man166.jpg, cue_2.jpg,2,1.5645,1,2,1.229,1,1.1197,1,4,0.9058
1,1,143,3,0,0,168, man229.jpg, ,3,0.9368,1,4,0.4012,7,0,7,7,0
1,1,144,1,4,4,23, man039.jpg, cue_4.jpg,2,3.4297,2,3,1.3334,2,1.9196,1,4,0.7147
1,1,145,3,0,0,228, man314.jpg, ,3,0.9314,1,4,0.3463,7,0,7,7,0
1,1,146,3,0,0,179, man244.jpg, ,1,2.4028,0,3,0.8772,2,11.6799,0,1,0.8465
1,1,147,1,2,3,71, man102.jpg, cue_2.jpg,1,1.1176,1,4,0.4638,1,5.4083,1,3,0.8732
1,1,148,2,3,2,221, man306.jpg, cue_3.jpg,1,4.0102,3,3,0.7857,4,1.1838,1,4,0.5567
1,1,149,2,1,1,136, man182.jpg, cue_1.jpg,2,1.3885,1,4,0.6259,3,1.0565,1,4,0.4906
1,1,150,2,1,1,56, man082.jpg, cue_1.jpg,1,1.7074,3,3,1.1074,3,1.9199,1,4,0.7074
1,1,151,3,0,0,219, man304.jpg, ,3,8.1393,1,1,1.4904,7,0,7,7,0
1,1,152,3,0,0,135, man180.jpg, ,3,0.9239,1,4,0.3745,7,0,7,7,0
1,1,153,2,4,4,35, man056.jpg, cue_4.jpg,1,1.6072,3,4,0.5668,2,5.4074,1,3,0.6835
1,1,154,2,1,1,210, man291.jpg, cue_1.jpg,1,2.0201,3,2,2.9268,3,0.5436,1,2,1.1644
1,1,155,1,3,2,73, man105.jpg, cue_3.jpg,1,2.5898,1,3,0.7558,4,1.0557,1,3,1.2865
1,1,156,2,3,2,208, man287.jpg, cue_3.jpg,1,4.1636,3,3,1.4632,2,3.7118,0,2,0.9414
1,1,157,1,1,1,13, man023.jpg, cue_1.jpg,2,2.7955,2,2,1.014,3,0.9274,1,4,0.7073
1,1,158,3,0,0,153, man203.jpg, ,3,7.115,1,2,1.0084,7,0,7,7,0
1,1,159,1,1,1,90, man124.jpg, cue_1.jpg,1,6.3796,1,2,0.7835,3,1.1199,1,4,0.4312
1,1,160,1,4,4,43, man064.jpg, cue_4.jpg,1,4.8653,1,2,2.4859,4,2.6876,0,1,1.1642
1,1,161,3,0,0,52, man076.jpg, ,3,1.3126,1,4,0.6625,7,0,7,7,0
1,1,162,3,0,0,22, man036.jpg, ,3,0.8025,1,4,0.3683,7,0,7,7,0
1,1,163,2,4,4,174, man237.jpg, cue_4.jpg,1,2.3423,3,3,2.6115,2,1.4079,1,4,0.5223
1,1,164,1,4,4,216, man301.jpg, cue_4.jpg,1,1.6737,1,3,0.9149,2,1.8877,1,4,0.5247
1,1,165,2,3,2,115, man157.jpg, cue_3.jpg,1,3.3404,3,4,0.9758,4,6.6552,1,4,0.5252
1,1,166,1,2,3,62, man091.jpg, cue_2.jpg,1,3.902,1,4,0.6663,1,0.6715,1,4,0.3348
1,1,167,3,0,0,171, man233.jpg, ,3,1.1515,1,4,0.3118,7,0,7,7,0
1,1,168,3,0,0,138, man184.jpg, ,3,0.7999,1,4,0.2376,7,0,7,7,0
1,1,169,3,0,0,85, man118.jpg, ,3,1.2249,1,4,0.3384,7,0,7,7,0
1,1,170,2,4,4,224, man310.jpg, cue_4.jpg,1,1.4359,3,4,0.5591,2,0.8641,1,4,0.3859
1,1,171,1,4,4,102, man138.jpg, cue_4.jpg,3,1.5432,0,2,0.7229,7,0,7,7,0
1,1,172,3,0,0,116, man158.jpg, ,3,0.7969,1,4,0.6025,7,0,7,7,0
1,1,173,3,0,0,64, man093.jpg, ,3,3.2075,1,1,0.813,7,0,7,7,0
1,1,174,3,0,0,98, man134.jpg, ,3,8.7712,1,2,0.787,7,0,7,7,0
1,1,175,3,0,0,172, man234.jpg, ,3,1.1276,1,4,0.4078,7,0,7,7,0
1,1,176,3,0,0,21, man035.jpg, ,3,0.9236,1,4,0.3725,7,0,7,7,0
1,1,177,1,1,1,155, man206.jpg, cue_1.jpg,1,2.5706,1,2,1.2301,3,4.7032,1,3,0.7721
1,1,178,3,0,0,24, man040.jpg, ,3,0.9051,1,4,0.336,7,0,7,7,0
1,1,179,1,4,4,95, man130.jpg, cue_4.jpg,2,3.6901,2,3,0.7824,2,0.6398,1,4,0.4176
1,1,180,3,0,0,63, man092.jpg, ,3,0.7415,1,4,0.374,7,0,7,7,0
1,1,181,1,2,3,86, man120.jpg, cue_2.jpg,1,2.5721,1,2,0.8474,2,0.8641,0,3,0.9328
1,1,182,3,0,0,92, man126.jpg, ,3,0.7089,1,4,0.3428,7,0,7,7,0
1,1,183,3,0,0,167, man228.jpg, ,3,0.7657,1,4,0.2687,7,0,7,7,0
1,1,184,3,0,0,149, man198.jpg, ,1,5.4466,0,2,0.9777,2,0.6398,0,1,0.461
1,1,185,1,3,2,45, man067.jpg, cue_3.jpg,1,2.5893,1,3,1.2015,4,0.8638,1,4,0.6502
1,1,186,1,2,3,99, man135.jpg, cue_2.jpg,1,3.841,1,4,0.7224,1,0.5122,1,4,0.3661
1,1,187,1,3,2,197, man271.jpg, cue_3.jpg,1,2.4999,1,2,1.3388,4,4.0319,1,3,0.9346
1,1,188,1,4,4,123, man165.jpg, cue_4.jpg,3,3.6229,0,2,0.8785,7,0,7,7,0
1,1,189,3,0,0,32, man052.jpg, ,3,2.0759,1,4,1.3031,7,0,7,7,0
1,1,190,1,3,2,68, man099.jpg, cue_3.jpg,1,1.1902,1,3,0.5956,4,0.7995,1,4,0.5177
1,1,191,2,4,4,230, man316.jpg, cue_4.jpg,2,1.0635,1,4,0.6987,2,3.232,1,4,0.549
1,1,192,1,1,1,50, man073.jpg, cue_1.jpg,1,2.595,1,4,0.374,3,0.5438,1,4,0.6229
1,1,193,2,4,4,76, man108.jpg, cue_4.jpg,2,2.5701,1,3,0.9417,2,0.7038,1,4,0.5518
1,1,194,1,3,2,165, man222.jpg, cue_3.jpg,1,7.0139,1,2,2.7993,1,2.848,0,1,1.1213
1,1,195,1,1,1,48, man071.jpg, cue_1.jpg,1,3.3355,1,3,1.4033,2,1.0881,0,2,1.0581
1,1,196,3,0,0,34, man055.jpg, ,3,1.5305,1,4,0.4102,7,0,7,7,0
1,1,197,1,1,1,234, man327.jpg, cue_1.jpg,1,1.5978,1,3,2.4906,3,0.7996,1,4,0.4153
1,1,198,2,3,2,164, man221.jpg, cue_3.jpg,2,1.4112,1,4,0.696,4,5.4717,1,4,0.5482
1,1,199,3,0,0,88, man122.jpg, ,3,1.0496,1,4,0.3417,7,0,7,7,0
1,1,200,3,0,0,148, man197.jpg, ,3,0.941,1,4,0.3088,7,0,7,7,0
1,1,201,3,0,0,78, man110.jpg, ,3,0.6853,1,4,0.3363,7,0,7,7,0
1,1,202,1,2,3,207, man284.jpg, cue_2.jpg,1,4.8396,1,2,0.7626,1,2.8802,1,4,0.7068
1,1,203,1,3,2,152, man202.jpg, cue_3.jpg,1,2.7945,1,4,0.597,4,0.5121,1,4,0.3894
1,1,204,2,4,4,104, man141.jpg, cue_4.jpg,1,1.8347,3,3,0.5251,2,0.608,1,4,0.4285
1,1,205,1,3,2,200, man276.jpg, cue_3.jpg,1,5.8238,1,3,0.5712,4,0.5117,1,2,0.6853
1,1,206,1,2,3,160, man212.jpg, cue_2.jpg,1,3.8778,1,2,0.915,1,0.5112,1,4,0.5495
1,1,207,3,0,0,25, man041.jpg, ,3,2.9801,1,1,0.5347,7,0,7,7,0
1,1,208,3,0,0,187, man253.jpg, ,3,1.091,1,4,0.4079,7,0,7,7,0
1,1,209,1,4,4,5, man010.jpg, cue_4.jpg,1,3.2119,1,3,2.1329,2,3.2958,1,3,0.8003
1,1,210,2,4,4,117, man159.jpg, cue_4.jpg,3,4.9959,0,1,0.5619,7,0,7,7,0
1,1,211,1,3,2,118, man160.jpg, cue_3.jpg,1,2.1751,1,2,1.3931,3,4.5438,0,3,0.7139
1,1,212,1,2,3,89, man123.jpg, cue_2.jpg,1,1.6012,1,2,1.3891,2,3.9679,0,2,1.1308
1,1,213,1,4,4,217, man302.jpg, cue_4.jpg,1,3.2017,1,3,0.9544,2,1.5997,1,2,0.7349
1,1,214,2,2,3,180, man245.jpg, cue_2.jpg,1,2.725,3,4,0.6904,1,0.7678,1,3,0.897
1,1,215,2,4,4,133, man178.jpg, cue_4.jpg,2,5.4437,1,3,0.7812,2,0.7358,1,3,0.7823
1,1,216,3,0,0,7, man014.jpg, ,3,0.9625,1,4,0.4102,7,0,7,7,0
1,1,217,2,2,3,134, man179.jpg, cue_2.jpg,2,1.2948,1,3,1.2384,1,0.8317,1,4,0.3519
1,1,218,1,4,4,204, man281.jpg, cue_4.jpg,1,1.7023,1,3,1.2944,2,1.4074,1,3,0.7165
1,1,219,3,0,0,60, man088.jpg, ,3,1.5076,1,4,0.436,7,0,7,7,0
1,1,220,1,1,1,28, man045.jpg, cue_1.jpg,1,2.4389,1,3,1.2957,3,0.5438,1,4,0.3857
1,1,221,3,0,0,106, man145.jpg, ,3,0.8071,1,4,0.3086,7,0,7,7,0
1,1,222,2,1,1,220, man305.jpg, cue_1.jpg,1,3.7893,3,4,1.55,3,0.4797,1,4,0.3597
1,1,223,2,3,2,185, man250.jpg, cue_3.jpg,1,4.2857,3,4,0.6978,4,0.4796,1,4,0.4554
1,1,224,2,1,1,41, man062.jpg, cue_1.jpg,3,2.1217,0,4,0.369,7,0,7,7,0
1,1,225,1,4,4,69, man100.jpg, cue_4.jpg,1,4.5181,1,3,0.6615,2,0.4156,1,4,0.3623
1,1,226,2,3,2,198, man273.jpg, cue_3.jpg,1,2.4002,3,4,0.7314,4,0.4798,1,4,0.3915
1,1,227,1,2,3,151, man201.jpg, cue_2.jpg,1,1.163,1,4,2.0113,1,1.0882,1,4,0.3929
1,1,228,2,3,2,2, man004.jpg, cue_3.jpg,1,6.1901,3,3,0.6025,2,0.8959,0,2,0.6187
1,1,229,2,3,2,190, man257.jpg, cue_3.jpg,3,3.6223,0,2,0.8456,7,0,7,7,0
1,1,230,3,0,0,47, man070.jpg, ,3,0.7993,1,4,0.3633,7,0,7,7,0
1,1,231,2,2,3,143, man189.jpg, cue_2.jpg,2,2.467,1,2,1.3386,1,0.8637,1,4,0.3342
1,1,232,1,4,4,141, man187.jpg, cue_4.jpg,1,2.7243,1,2,1.0106,2,0.6721,1,3,0.5556
1,1,233,2,1,1,122, man164.jpg, cue_1.jpg,2,3.5297,1,3,2.8692,3,2.1117,1,3,1.2185
1,1,234,1,3,2,130, man172.jpg, cue_3.jpg,1,6.6614,1,4,0.9735,4,4.7999,1,2,0.9387
1,1,235,1,1,1,103, man139.jpg, cue_1.jpg,1,2.3766,1,3,0.6926,3,0.6716,1,4,0.5522
1,1,236,1,2,3,178, man242.jpg, cue_2.jpg,1,2.7606,1,4,0.5005,1,0.6719,1,4,0.4502
1,1,237,1,2,3,17, man029.jpg, cue_2.jpg,1,3.2043,1,3,1.1017,1,2.0154,1,3,0.7459
1,1,238,2,4,4,147, man196.jpg, cue_4.jpg,1,2.1116,3,4,0.4068,2,0.8639,1,4,0.3203
1,1,239,2,1,1,8, man015.jpg, cue_1.jpg,2,4.0725,1,3,0.5249,3,0.5118,1,3,0.6719
1,1,240,2,4,4,199, man275.jpg, cue_4.jpg,1,3.1775,3,2,0.596,2,0.7037,1,1,0.9723
2,1,1,1,2,1,6, man013.jpg, cue_2.jpg,1,1.1485,1,4,1.738,2,1.1827,1,4,1.5369
2,1,2,1,3,4,131, man174.jpg, cue_3.jpg,1,2.566,1,3,1.4013,3,1.0874,1,4,1.2804
2,1,3,1,4,2,105, man144.jpg, cue_4.jpg,1,1.6469,1,4,1.175,4,2.9122,1,4,0.8775
2,1,4,1,3,4,210, man291.jpg, cue_3.jpg,1,1.15,1,3,1.5138,3,0.6079,1,4,0.4825
2,1,5,1,1,3,155, man206.jpg, cue_1.jpg,1,1.4756,1,1,0.8214,1,1.4712,1,4,2.8821
2,1,6,2,2,1,63, man092.jpg, cue_2.jpg,1,2.6877,3,3,1.6467,2,1.3762,1,4,1.9188
2,1,7,1,4,2,218, man303.jpg, cue_4.jpg,2,2.7553,2,3,1.4874,1,1.3757,0,4,1.4464
2,1,8,2,3,4,7, man014.jpg, cue_3.jpg,2,1.4067,1,4,1.1707,3,0.5438,1,4,0.7786
2,1,9,1,2,1,141, man187.jpg, cue_2.jpg,1,1.5027,1,4,1.2631,2,0.9918,1,4,0.6067
2,1,10,3,0,0,197, man271.jpg, ,3,1.4833,1,4,2.6686,7,0,7,7,0
2,1,11,1,3,4,64, man093.jpg, cue_3.jpg,1,1.8577,1,3,1.2674,3,0.5117,1,4,0.3278
2,1,12,2,2,1,84, man117.jpg, cue_2.jpg,2,1.3431,1,4,0.564,2,0.4476,1,4,0.331
2,1,13,2,4,2,114, man156.jpg, cue_4.jpg,1,0.9942,3,4,1.1761,4,0.6398,1,4,0.3634
2,1,14,2,1,3,146, man193.jpg, cue_1.jpg,2,1.025,1,4,0.9164,1,0.8639,1,4,0.4901
2,1,15,1,3,4,70, man101.jpg, cue_3.jpg,1,1.0991,1,4,0.8914,3,0.6074,1,4,0.8449
2,1,16,1,1,3,22, man036.jpg, cue_1.jpg,1,1.6796,1,2,1.6249,1,0.9278,1,4,0.3972
2,1,17,2,3,4,231, man321.jpg, cue_3.jpg,2,1.3777,1,3,0.8877,3,0.4156,1,4,0.3838
2,1,18,3,0,0,88, man122.jpg, ,3,1.1244,1,4,0.9494,7,0,7,7,0
2,1,19,2,4,2,85, man118.jpg, cue_4.jpg,2,1.2159,1,4,0.8141,4,0.4796,1,4,0.2314
2,1,20,1,2,1,58, man085.jpg, cue_2.jpg,1,1.2508,1,3,1.0378,2,0.5119,1,4,0.556
2,1,21,3,0,0,225, man311.jpg, ,3,1.5783,1,4,0.6958,7,0,7,7,0
2,1,22,2,1,3,103, man139.jpg, cue_1.jpg,2,1.4397,1,3,0.6906,1,1.4081,1,4,0.9367
2,1,23,2,1,3,139, man185.jpg, cue_1.jpg,2,1.2242,1,4,1.2681,1,0.4482,1,4,0.2674
2,1,24,3,0,0,29, man047.jpg, ,3,1.0295,1,4,0.698,7,0,7,7,0
2,1,25,1,4,2,48, man071.jpg, cue_4.jpg,1,1.4102,1,3,0.6947,3,0.4795,0,4,0.9641
2,1,26,2,2,1,201, man277.jpg, cue_2.jpg,2,1.3099,1,3,1.2736,2,0.3518,1,4,0.2921
2,1,27,3,0,0,181, man246.jpg, ,3,0.8777,1,4,0.5047,7,0,7,7,0
2,1,28,2,1,3,62, man091.jpg, cue_1.jpg,2,1.3207,1,3,0.6876,1,0.6398,1,4,0.3924
2,1,29,2,4,2,180, man245.jpg, cue_4.jpg,1,1.9012,3,3,0.941,4,0.5116,1,4,0.3034
2,1,30,1,1,3,149, man198.jpg, cue_1.jpg,1,2.2162,1,3,1.7228,1,0.5436,1,4,0.3952
2,1,31,1,2,1,226, man312.jpg, cue_2.jpg,1,2.2368,1,3,2.001,2,1.0559,1,4,0.1916
2,1,32,2,3,4,104, man141.jpg, cue_3.jpg,2,1.0374,1,4,0.814,3,0.416,1,4,0.2686
2,1,33,1,3,4,109, man150.jpg, cue_3.jpg,1,1.7026,1,4,0.4947,3,0.3842,1,4,0.2651
2,1,34,2,4,2,184, man249.jpg, cue_4.jpg,2,1.155,1,4,1.5207,4,3.1037,1,3,1.1828
2,1,35,3,0,0,232, man322.jpg, ,3,0.9926,1,4,0.5044,7,0,7,7,0
2,1,36,2,3,4,91, man125.jpg, cue_3.jpg,1,2.6966,3,3,1.0793,3,0.5754,1,4,0.2712
2,1,37,2,3,4,118, man160.jpg, cue_3.jpg,2,2.3151,1,3,1.978,3,2.5917,1,3,0.9698
2,1,38,3,0,0,116, man158.jpg, ,3,0.8702,1,4,0.3373,7,0,7,7,0
2,1,39,2,4,2,142, man188.jpg, cue_4.jpg,2,1.3847,1,3,0.9738,4,0.5441,1,4,0.8454
2,1,40,3,0,0,57, man084.jpg, ,3,0.9271,1,4,0.2797,7,0,7,7,0
2,1,41,3,0,0,126, man168.jpg, ,3,0.9613,1,4,0.2167,7,0,7,7,0
2,1,42,3,0,0,36, man057.jpg, ,3,0.7698,1,4,0.2112,7,0,7,7,0
2,1,43,3,0,0,206, man283.jpg, ,3,0.6723,1,4,0.2115,7,0,7,7,0
2,1,44,1,4,2,161, man213.jpg, cue_4.jpg,1,1.0237,1,4,1.0123,4,1.1518,1,4,0.2946
2,1,45,2,3,4,207, man284.jpg, cue_3.jpg,1,2.1774,3,3,2.1655,3,0.5117,1,4,0.7722
2,1,46,2,1,3,90, man124.jpg, cue_1.jpg,2,1.3532,1,3,1.1042,1,0.4477,1,4,0.2703
2,1,47,2,4,2,78, man110.jpg, cue_4.jpg,2,2.5041,1,4,1.1976,4,0.4481,1,4,0.2968
2,1,48,2,4,2,178, man242.jpg, cue_4.jpg,2,2.3694,1,4,0.7173,4,0.4159,1,4,0.2347
2,1,49,3,0,0,134, man179.jpg, ,3,0.8086,1,4,0.2142,7,0,7,7,0
2,1,50,2,3,4,158, man209.jpg, cue_3.jpg,1,1.1223,3,3,1.0107,3,0.6721,1,4,0.3953
2,1,51,2,3,4,168, man229.jpg, cue_3.jpg,2,1.2463,1,3,0.8912,3,0.5441,1,4,0.6545
2,1,52,3,0,0,74, man106.jpg, ,3,0.7445,1,4,0.2489,7,0,7,7,0
2,1,53,2,1,3,137, man183.jpg, cue_1.jpg,2,1.4089,1,4,0.9522,1,0.3519,1,4,0.1923
2,1,54,3,0,0,26, man042.jpg, ,3,0.878,1,4,0.1528,7,0,7,7,0
2,1,55,2,1,3,227, man313.jpg, cue_1.jpg,2,1.2238,1,4,0.5609,1,0.352,1,4,0.236
2,1,56,1,3,4,186, man252.jpg, cue_3.jpg,1,1.1284,1,4,0.5049,3,0.352,1,4,0.2275
2,1,57,3,0,0,13, man023.jpg, ,3,0.9592,1,4,0.1827,7,0,7,7,0
2,1,58,1,1,3,160, man212.jpg, cue_1.jpg,1,1.4103,1,3,0.5688,1,0.3837,1,4,0.1594
2,1,59,1,1,3,177, man241.jpg, cue_1.jpg,1,0.9746,1,3,0.6613,1,0.4478,1,4,0.1654
2,1,60,3,0,0,20, man034.jpg, ,3,0.8013,1,4,0.1768,7,0,7,7,0
2,1,61,1,4,2,28, man045.jpg, cue_4.jpg,1,1.1192,1,4,1.6477,4,1.6317,1,4,0.1969
2,1,62,2,3,4,150, man199.jpg, cue_3.jpg,2,1.2485,1,3,1.0369,3,1.4401,1,4,0.2599
2,1,63,3,0,0,45, man067.jpg, ,3,0.7185,1,4,0.1758,7,0,7,7,0
2,1,64,2,4,2,4, man007.jpg, cue_4.jpg,1,2.542,3,4,0.5951,4,0.3839,1,4,0.2652
2,1,65,3,0,0,240, man336.jpg, ,3,0.9311,1,4,0.1552,7,0,7,7,0
2,1,66,3,0,0,143, man189.jpg, ,3,0.7127,1,4,0.2512,7,0,7,7,0
2,1,67,3,0,0,43, man064.jpg, ,3,0.7755,1,4,0.2468,7,0,7,7,0
2,1,68,1,3,4,211, man295.jpg, cue_3.jpg,1,1.0893,1,4,0.6916,3,0.3196,1,4,0.2317
2,1,69,1,1,3,162, man215.jpg, cue_1.jpg,3,0.8975,0,4,0.2049,7,0,7,7,0
2,1,70,3,0,0,25, man041.jpg, ,3,0.6498,1,4,0.3017,7,0,7,7,0
2,1,71,2,4,2,200, man276.jpg, cue_4.jpg,1,1.0305,3,4,0.4111,4,0.3521,1,4,0.2022
2,1,72,1,4,2,79, man111.jpg, cue_4.jpg,1,0.9656,1,4,0.1742,4,0.5117,1,4,0.1918
2,1,73,3,0,0,148, man197.jpg, ,3,1.0694,1,4,0.1438,7,0,7,7,0
2,1,74,2,4,2,82, man114.jpg, cue_4.jpg,2,1.631,1,3,1.8184,4,0.5758,1,4,0.5166
2,1,75,3,0,0,159, man210.jpg, ,3,0.9966,1,4,0.1864,7,0,7,7,0
2,1,76,3,0,0,125, man167.jpg, ,3,0.7442,1,4,0.2137,7,0,7,7,0
2,1,77,1,3,4,17, man029.jpg, cue_3.jpg,1,1.6688,1,4,1.0061,3,0.4481,1,4,0.1918
2,1,78,3,0,0,239, man333.jpg, ,3,0.7492,1,4,0.3331,7,0,7,7,0
2,1,79,1,3,4,203, man279.jpg, cue_3.jpg,2,1.8255,2,3,0.5996,3,0.2878,1,4,0.2253
2,1,80,2,1,3,34, man055.jpg, cue_1.jpg,2,1.709,1,4,0.5334,1,0.2877,1,4,0.1614
2,1,81,2,1,3,18, man031.jpg, cue_1.jpg,2,1.5676,1,4,0.9731,1,0.3197,1,4,0.1659
2,1,82,1,1,3,152, man202.jpg, cue_1.jpg,1,1.1885,1,4,0.3058,1,0.3841,1,4,0.1637
2,1,83,3,0,0,221, man306.jpg, ,3,1.09,1,4,0.18,7,0,7,7,0
2,1,84,3,0,0,83, man115.jpg, ,3,0.7056,1,4,0.1472,7,0,7,7,0
2,1,85,2,1,3,130, man172.jpg, cue_1.jpg,2,1.4103,1,3,0.8552,1,0.3194,1,4,0.1625
2,1,86,2,3,4,16, man027.jpg, cue_3.jpg,2,1.3788,1,3,0.4409,3,0.4158,1,4,0.1959
2,1,87,1,3,4,223, man309.jpg, cue_3.jpg,1,0.9605,1,4,0.6318,3,0.4481,1,4,0.1679
2,1,88,1,3,4,40, man061.jpg, cue_3.jpg,1,0.8722,1,4,0.435,3,0.3518,1,4,0.1926
2,1,89,3,0,0,59, man086.jpg, ,3,0.6225,1,4,0.2437,7,0,7,7,0
2,1,90,2,3,4,44, man066.jpg, cue_3.jpg,2,1.1354,1,3,0.524,3,0.3513,1,4,0.1692
2,1,91,3,0,0,127, man169.jpg, ,3,0.9995,1,4,0.2048,7,0,7,7,0
2,1,92,1,4,2,171, man233.jpg, cue_4.jpg,1,1.0017,1,4,0.2389,4,0.5117,1,4,0.2387
2,1,93,2,1,3,5, man010.jpg, cue_1.jpg,2,1.4165,1,3,0.5262,1,0.3518,1,4,0.1682
2,1,94,2,2,1,133, man178.jpg, cue_2.jpg,2,1.1586,1,3,0.4376,2,0.5439,1,4,0.2354
2,1,95,2,3,4,94, man129.jpg, cue_3.jpg,2,2.308,1,3,0.9498,3,0.3197,1,4,0.2553
2,1,96,2,1,3,124, man166.jpg, cue_1.jpg,2,1.13,1,4,0.6987,1,0.2553,1,4,0.1751
2,1,97,1,2,1,11, man019.jpg, cue_2.jpg,1,1.8556,1,4,0.3053,2,0.5436,1,4,0.2048
2,1,98,2,2,1,1, man002.jpg, cue_2.jpg,2,1.3215,1,3,0.5295,2,0.3202,1,4,0.2342
2,1,99,2,1,3,111, man153.jpg, cue_1.jpg,2,3.0805,1,4,1.4312,4,0.3841,0,4,0.2023
2,1,100,1,3,4,80, man112.jpg, cue_3.jpg,1,1.3815,1,4,0.6035,3,0.2561,1,4,0.1999
2,1,101,1,1,3,32, man052.jpg, cue_1.jpg,3,3.0769,0,4,0.7204,7,0,7,7,0
2,1,102,3,0,0,129, man171.jpg, ,3,0.9386,1,4,0.1788,7,0,7,7,0
2,1,103,2,2,1,128, man170.jpg, cue_2.jpg,2,1.1523,1,4,1.0075,2,0.3197,1,4,0.2306
2,1,104,1,1,3,193, man260.jpg, cue_1.jpg,1,1.1524,1,4,0.4335,1,0.2876,1,4,0.1614
2,1,105,2,1,3,77, man109.jpg, cue_1.jpg,2,1.5359,1,4,0.431,1,0.2553,1,4,0.2888
2,1,106,2,2,1,157, man208.jpg, cue_2.jpg,2,0.9702,1,2,0.3042,2,1.5362,1,4,0.2264
2,1,107,1,2,1,199, man275.jpg, cue_2.jpg,1,1.551,1,4,0.4928,2,0.4801,1,4,0.4191
2,1,108,3,0,0,204, man281.jpg, ,3,1.1267,1,4,0.2151,7,0,7,7,0
2,1,109,3,0,0,213, man297.jpg, ,3,0.8033,1,4,0.2411,7,0,7,7,0
2,1,110,1,3,4,234, man327.jpg, cue_3.jpg,1,2.5085,1,3,1.0417,3,0.2877,1,4,0.2664
2,1,111,1,1,3,92, man126.jpg, cue_1.jpg,1,1.1562,1,4,0.4673,1,0.4482,1,4,0.1721
2,1,112,2,1,3,24, man040.jpg, cue_1.jpg,1,1.3224,3,3,0.6255,1,0.448,1,4,0.1963
2,1,113,3,0,0,102, man138.jpg, ,3,1.153,1,4,0.2402,7,0,7,7,0
2,1,114,1,4,2,216, man301.jpg, cue_4.jpg,1,1.3876,1,4,0.6538,4,0.5439,1,4,0.2052
2,1,115,1,4,2,195, man267.jpg, cue_4.jpg,1,0.9387,1,4,0.2427,4,0.288,1,4,0.2998
2,1,116,1,3,4,107, man147.jpg, cue_3.jpg,1,1.0607,1,4,0.4073,3,0.4164,1,4,0.2279
2,1,117,2,1,3,86, man120.jpg, cue_1.jpg,1,1.9515,3,3,0.7488,1,0.5122,1,4,0.5511
2,1,118,3,0,0,188, man254.jpg, ,3,0.741,1,4,0.1816,7,0,7,7,0
2,1,119,2,2,1,52, man076.jpg, cue_2.jpg,2,1.2501,1,4,0.8142,2,0.3519,1,4,0.1726
2,1,120,2,3,4,229, man315.jpg, cue_3.jpg,2,1.1306,1,4,1.5951,3,1.1516,1,4,0.4547
2,1,121,1,1,3,75, man107.jpg, cue_1.jpg,1,1.0012,1,4,0.3027,1,0.3839,1,4,0.2565
2,1,122,3,0,0,192, man259.jpg, ,3,0.8752,1,4,0.2464,7,0,7,7,0
2,1,123,3,0,0,49, man072.jpg, ,3,0.7994,1,4,0.207,7,0,7,7,0
2,1,124,3,0,0,120, man162.jpg, ,3,0.7159,1,4,0.2049,7,0,7,7,0
2,1,125,1,2,1,191, man258.jpg, cue_2.jpg,1,1.2577,1,4,0.8526,2,0.3834,1,4,0.1732
2,1,126,3,0,0,96, man131.jpg, ,3,0.8143,1,4,0.2192,7,0,7,7,0
2,1,127,1,1,3,67, man096.jpg, cue_1.jpg,1,0.9681,1,4,0.527,3,0.3196,0,4,0.2347
2,1,128,3,0,0,156, man207.jpg, ,3,0.87,1,4,0.27,7,0,7,7,0
2,1,129,1,4,2,173, man236.jpg, cue_4.jpg,1,1.2272,1,4,0.7914,4,0.5436,1,4,0.2385
2,1,130,1,3,4,135, man180.jpg, cue_3.jpg,2,1.5459,2,3,0.6648,3,0.3201,1,4,0.2694
2,1,131,3,0,0,172, man234.jpg, ,3,0.8093,1,4,0.2149,7,0,7,7,0
2,1,132,2,4,2,31, man050.jpg, cue_4.jpg,2,1.827,1,4,0.5663,4,0.3842,1,4,0.2055
2,1,133,2,4,2,208, man287.jpg, cue_4.jpg,1,1.2567,3,4,0.2774,4,0.4477,1,4,0.1979
2,1,134,2,4,2,147, man196.jpg, cue_4.jpg,1,1.3146,3,4,0.6351,4,1.728,1,4,0.9017
2,1,135,2,3,4,110, man152.jpg, cue_3.jpg,2,4.1665,1,4,1.1755,3,0.3202,1,4,0.1995
2,1,136,2,3,4,66, man095.jpg, cue_3.jpg,2,1.2849,1,4,0.4625,3,0.5758,1,4,0.2256
2,1,137,1,3,4,198, man273.jpg, cue_3.jpg,1,1.1019,1,4,0.2391,3,0.3837,1,4,0.1283
2,1,138,1,4,2,65, man094.jpg, cue_4.jpg,3,0.8993,0,2,5.1329,7,0,7,7,0
2,1,139,1,2,1,2, man004.jpg, cue_2.jpg,2,2.5072,2,3,1.3296,2,0.5117,1,4,0.5791
2,1,140,1,1,3,138, man184.jpg, cue_1.jpg,1,1.1502,1,4,1.8071,1,1.2482,1,3,2.1903
2,1,141,3,0,0,46, man068.jpg, ,3,1.2218,1,4,0.244,7,0,7,7,0
2,1,142,2,2,1,154, man205.jpg, cue_2.jpg,2,1.5349,1,3,1.71,2,0.9597,1,4,0.6187
2,1,143,2,2,1,215, man299.jpg, cue_2.jpg,2,1.2566,1,3,0.6593,2,0.384,1,4,0.2628
2,1,144,3,0,0,214, man298.jpg, ,3,0.7686,1,4,0.2717,7,0,7,7,0
2,1,145,1,4,2,69, man100.jpg, cue_4.jpg,1,1.0002,1,4,0.2713,4,0.32,1,4,0.1653
2,1,146,1,1,3,170, man231.jpg, cue_1.jpg,1,0.9636,1,4,0.5708,3,0.8638,0,3,0.5262
2,1,147,3,0,0,61, man089.jpg, ,3,1.1309,1,4,0.2691,7,0,7,7,0
2,1,148,3,0,0,93, man128.jpg, ,3,0.6156,1,4,0.205,7,0,7,7,0
2,1,149,2,3,4,101, man137.jpg, cue_3.jpg,2,1.0979,1,4,0.5069,3,0.3836,1,4,0.1653
2,1,150,1,1,3,187, man253.jpg, cue_1.jpg,1,1.3455,1,3,1.8501,4,2.0477,0,4,1.2224
2,1,151,2,4,2,163, man217.jpg, cue_4.jpg,2,1.5432,1,4,0.4393,4,0.3202,1,4,0.2307
2,1,152,1,1,3,119, man161.jpg, cue_1.jpg,1,1.474,1,4,0.4359,1,0.3517,1,4,0.2252
2,1,153,1,4,2,182, man247.jpg, cue_4.jpg,1,1.0358,1,4,0.2737,4,0.5758,1,4,0.3333
2,1,154,2,2,1,228, man314.jpg, cue_2.jpg,1,1.1245,3,4,0.533,2,0.3515,1,4,0.2391
2,1,155,3,0,0,97, man133.jpg, ,3,1.0025,1,4,0.2716,7,0,7,7,0
2,1,156,2,2,1,42, man063.jpg, cue_2.jpg,2,1.834,1,4,1.0189,2,0.3839,1,4,0.2249
2,1,157,1,4,2,41, man062.jpg, cue_4.jpg,1,1.6449,1,4,0.3759,4,0.3838,1,4,0.263
2,1,158,3,0,0,47, man070.jpg, ,3,0.8649,1,4,0.187,7,0,7,7,0
2,1,159,2,2,1,51, man075.jpg, cue_2.jpg,2,1.6423,1,3,1.0418,2,0.3518,1,4,0.2333
2,1,160,1,2,1,76, man108.jpg, cue_2.jpg,2,1.0929,2,4,0.3107,2,0.5438,1,4,0.1935
2,1,161,1,2,1,33, man054.jpg, cue_2.jpg,1,1.1671,1,4,0.3656,2,0.3518,1,4,0.2053
2,1,162,3,0,0,185, man250.jpg, ,3,0.7798,1,4,0.2186,7,0,7,7,0
2,1,163,2,4,2,12, man022.jpg, cue_4.jpg,2,1.447,1,4,0.314,4,0.5123,1,4,0.1665
2,1,164,1,2,1,72, man104.jpg, cue_2.jpg,1,1.0904,1,3,0.7584,2,0.3204,1,4,0.2323
2,1,165,2,3,4,8, man015.jpg, cue_3.jpg,2,1.2198,1,4,0.3042,3,1.4076,1,3,1.8633
2,1,166,3,0,0,10, man017.jpg, ,3,1.2949,1,4,0.2164,7,0,7,7,0
2,1,167,1,2,1,112, man154.jpg, cue_2.jpg,1,1.5085,1,3,0.7247,2,0.4156,1,4,0.1939
2,1,168,3,0,0,233, man326.jpg, ,3,0.737,1,4,0.1774,7,0,7,7,0
2,1,169,3,0,0,37, man058.jpg, ,3,0.7027,1,4,0.1769,7,0,7,7,0
2,1,170,3,0,0,21, man035.jpg, ,3,1.9671,1,4,0.3149,7,0,7,7,0
2,1,171,3,0,0,202, man278.jpg, ,3,1.0603,1,4,0.2796,7,0,7,7,0
2,1,172,2,3,4,136, man182.jpg, cue_3.jpg,2,2.3053,1,2,1.0078,3,0.6399,1,4,0.4569
2,1,173,3,0,0,212, man296.jpg, ,3,1.324,1,4,0.5002,7,0,7,7,0
2,1,174,3,0,0,176, man240.jpg, ,3,0.7083,1,4,0.2784,7,0,7,7,0
2,1,175,3,0,0,19, man032.jpg, ,3,0.6053,1,4,0.2444,7,0,7,7,0
2,1,176,1,2,1,179, man244.jpg, cue_2.jpg,1,1.6326,1,2,0.6992,2,0.4803,1,4,0.1698
2,1,177,3,0,0,151, man201.jpg, ,3,0.9362,1,4,0.1762,7,0,7,7,0
2,1,178,3,0,0,217, man302.jpg, ,3,0.6225,1,4,0.1799,7,0,7,7,0
2,1,179,1,4,2,123, man165.jpg, cue_4.jpg,1,1.0256,1,4,0.6303,4,0.2554,1,4,0.1597
2,1,180,1,1,3,3, man005.jpg, cue_1.jpg,1,1.5505,1,3,1.0017,1,0.4156,1,4,0.1919
2,1,181,1,1,3,224, man310.jpg, cue_1.jpg,1,1.0376,1,3,0.9774,1,0.3837,1,4,0.1354
2,1,182,1,2,1,23, man039.jpg, cue_2.jpg,2,0.999,2,3,0.7632,4,0.8634,0,4,0.1679
2,1,183,1,1,3,35, man056.jpg, cue_1.jpg,1,1.03,1,3,0.8266,1,0.352,1,4,0.1362
2,1,184,1,2,1,167, man228.jpg, cue_2.jpg,1,1.864,1,3,1.1778,2,0.3198,1,4,0.2019
2,1,185,3,0,0,89, man123.jpg, ,3,0.9669,1,4,0.2697,7,0,7,7,0
2,1,186,2,2,1,39, man060.jpg, cue_2.jpg,3,0.5516,0,3,2.6401,7,0,7,7,0
2,1,187,2,2,1,236, man329.jpg, cue_2.jpg,2,3.2386,1,3,1.6141,2,0.3198,1,4,0.3001
2,1,188,1,2,1,38, man059.jpg, cue_2.jpg,1,1.4449,1,4,0.696,2,0.3838,1,4,0.2657
2,1,189,3,0,0,53, man077.jpg, ,3,0.7082,1,4,0.2755,7,0,7,7,0
2,1,190,3,0,0,209, man289.jpg, ,3,0.8313,1,4,0.2512,7,0,7,7,0
2,1,191,2,4,2,14, man024.jpg, cue_4.jpg,1,1.287,3,3,0.4327,4,0.5115,1,4,1.1598
2,1,192,3,0,0,27, man044.jpg, ,3,1.1642,1,4,0.3151,7,0,7,7,0
2,1,193,3,0,0,175, man238.jpg, ,3,1.2519,1,4,0.2707,7,0,7,7,0
2,1,194,1,3,4,222, man307.jpg, cue_3.jpg,1,2.1527,1,3,0.8129,3,0.2557,1,4,0.1917
2,1,195,3,0,0,117, man159.jpg, ,3,0.8454,1,4,0.2495,7,0,7,7,0
2,1,196,1,2,1,189, man255.jpg, cue_2.jpg,2,1.7642,2,3,1.1757,2,0.9279,1,4,0.3207
2,1,197,2,2,1,87, man121.jpg, cue_2.jpg,2,2.4085,1,4,0.6271,2,0.2879,1,4,0.236
2,1,198,1,3,4,238, man332.jpg, cue_3.jpg,1,1.4788,1,4,0.6331,3,0.4159,1,4,0.1724
2,1,199,3,0,0,121, man163.jpg, ,3,0.8108,1,4,0.1843,7,0,7,7,0
2,1,200,3,0,0,95, man130.jpg, ,3,0.8062,1,4,0.1767,7,0,7,7,0
2,1,201,3,0,0,145, man191.jpg, ,3,0.609,1,4,0.2154,7,0,7,7,0
2,1,202,1,3,4,54, man078.jpg, cue_3.jpg,1,1.1875,1,3,0.7213,3,0.2557,1,4,0.1992
2,1,203,3,0,0,108, man149.jpg, ,3,0.676,1,4,0.2444,7,0,7,7,0
2,1,204,3,0,0,220, man305.jpg, ,3,0.6422,1,4,0.2148,7,0,7,7,0
2,1,205,3,0,0,50, man073.jpg, ,3,0.643,1,4,0.3114,7,0,7,7,0
2,1,206,2,4,2,174, man237.jpg, cue_4.jpg,2,1.088,1,4,0.4336,4,0.8318,1,3,1.2905
2,1,207,1,1,3,113, man155.jpg, cue_1.jpg,1,1.2912,1,4,0.3407,1,0.288,1,4,0.2333
2,1,208,3,0,0,205, man282.jpg, ,3,0.773,1,4,0.2119,7,0,7,7,0
2,1,209,2,1,3,166, man223.jpg, cue_1.jpg,2,1.44,1,3,0.7231,1,0.2562,1,4,0.1373
2,1,210,3,0,0,164, man221.jpg, ,3,0.6809,1,4,0.2195,7,0,7,7,0
2,1,211,2,1,3,140, man186.jpg, cue_1.jpg,1,1.9285,3,3,0.6312,1,0.7356,1,4,0.205
2,1,212,2,1,3,219, man304.jpg, cue_1.jpg,2,1.2902,1,4,0.4037,3,1.2478,0,2,1.3255
2,1,213,1,4,2,100, man136.jpg, cue_4.jpg,3,1.0036,0,4,0.1769,7,0,7,7,0
2,1,214,1,4,2,9, man016.jpg, cue_4.jpg,1,1.3104,1,3,0.7911,4,0.8638,1,4,0.2707
2,1,215,1,3,4,106, man145.jpg, cue_3.jpg,1,1.0672,1,3,0.6539,3,0.3516,1,4,0.3224
2,1,216,2,3,4,169, man230.jpg, cue_3.jpg,2,1.0665,1,4,0.3648,3,0.4798,1,4,0.1365
2,1,217,1,4,2,144, man190.jpg, cue_4.jpg,2,1.8321,2,4,0.4432,4,0.416,1,4,0.1342
2,1,218,2,3,4,98, man134.jpg, cue_3.jpg,2,1.5739,1,3,1.3313,3,0.6398,1,4,0.1906
2,1,219,3,0,0,68, man099.jpg, ,3,1.005,1,4,0.2425,7,0,7,7,0
2,1,220,3,0,0,165, man222.jpg, ,3,1.1019,1,4,0.3349,7,0,7,7,0
2,1,221,1,2,1,153, man203.jpg, cue_2.jpg,1,1.2192,1,4,0.722,2,0.7999,1,4,0.1934
2,1,222,2,2,1,73, man105.jpg, cue_2.jpg,1,1.1669,3,2,1.1971,2,1.184,1,4,0.6134
2,1,223,3,0,0,56, man082.jpg, ,3,0.8678,1,4,0.2709,7,0,7,7,0
2,1,224,2,2,1,235, man328.jpg, cue_2.jpg,2,1.0328,1,4,0.3649,2,0.3838,1,4,0.1405
2,1,225,1,4,2,230, man316.jpg, cue_4.jpg,1,2.0895,1,3,0.564,4,0.416,1,4,0.1701
2,1,226,3,0,0,71, man102.jpg, ,3,0.7123,1,4,0.2181,7,0,7,7,0
2,1,227,1,4,2,15, man025.jpg, cue_4.jpg,2,1.1586,2,3,0.563,4,0.4479,1,4,0.2661
2,1,228,3,0,0,132, man177.jpg, ,3,0.7722,1,4,0.2437,7,0,7,7,0
2,1,229,2,4,2,115, man157.jpg, cue_4.jpg,2,1.6788,1,2,1.1443,4,0.3517,1,4,0.1986
2,1,230,1,2,1,196, man268.jpg, cue_2.jpg,1,1.8612,1,3,1.0789,2,0.256,1,4,0.2063
2,1,231,3,0,0,183, man248.jpg, ,3,0.8112,1,4,0.1499,7,0,7,7,0
2,1,232,2,1,3,194, man262.jpg, cue_1.jpg,1,0.8719,3,4,0.3389,1,0.2878,1,4,0.1674
2,1,233,2,4,2,190, man257.jpg, cue_4.jpg,2,1.4139,1,2,1.4982,4,1.2803,1,4,0.1639
2,1,234,3,0,0,30, man048.jpg, ,3,0.7072,1,4,0.213,7,0,7,7,0
2,1,235,1,2,1,55, man079.jpg, cue_2.jpg,1,1.0569,1,3,0.7244,2,0.3519,1,4,0.2622
2,1,236,2,2,1,122, man164.jpg, cue_2.jpg,2,1.0855,1,4,0.9142,2,0.3517,1,4,0.2363
2,1,237,3,0,0,237, man330.jpg, ,3,0.8718,1,4,0.5627,7,0,7,7,0
2,1,238,3,0,0,81, man113.jpg, ,3,1.2803,1,4,0.2502,7,0,7,7,0
2,1,239,2,2,1,99, man135.jpg, cue_2.jpg,2,2.5648,1,3,1.2411,2,0.3523,1,4,0.2292
2,1,240,2,4,2,60, man088.jpg, cue_4.jpg,2,1.5665,1,2,0.9745,4,0.3522,1,4,0.1977
3,1,1,2,2,2,125, man167.jpg, cue_2.jpg,2,1.1581,1,4,1.9093,1,1.1837,1,4,1.2825
3,1,2,1,1,4,12, man022.jpg, cue_1.jpg,2,1.8578,2,3,1.3316,4,1.0873,1,4,1.1322
3,1,3,2,1,4,115, man157.jpg, cue_1.jpg,2,2.1943,1,2,0.9821,4,1.8234,1,4,0.8783
3,1,4,2,1,4,208, man287.jpg, cue_1.jpg,2,2.5278,1,1,1.8135,4,1.0556,1,4,0.9397
3,1,5,3,0,0,107, man147.jpg, ,3,1.5618,1,4,0.7282,7,0,7,7,0
3,1,6,2,4,3,18, man031.jpg, cue_4.jpg,2,1.5985,1,3,1.0827,3,0.7994,1,4,1.0676
3,1,7,1,4,3,53, man077.jpg, cue_4.jpg,1,1.732,1,2,1.5944,3,0.7356,1,4,1.0325
3,1,8,3,0,0,142, man188.jpg, ,3,1.4104,1,3,1.1431,7,0,7,7,0
3,1,9,3,0,0,162, man215.jpg, ,3,1.1129,1,4,2.0755,7,0,7,7,0
3,1,10,1,2,2,45, man067.jpg, cue_2.jpg,1,1.6437,1,3,1.6865,1,0.5431,1,4,0.5835
3,1,11,2,2,2,70, man101.jpg, cue_2.jpg,2,1.1246,1,4,0.629,1,0.5438,1,4,0.5466
3,1,12,2,2,2,34, man055.jpg, cue_2.jpg,2,1.249,1,3,0.8579,1,0.4795,1,4,0.515
3,1,13,1,4,3,153, man203.jpg, cue_4.jpg,2,1.2828,2,3,0.6987,3,0.9594,1,4,1.0621
3,1,14,3,0,0,76, man108.jpg, ,3,1.3427,1,2,1.2378,7,0,7,7,0
3,1,15,3,0,0,238, man332.jpg, ,3,1.0635,1,4,0.9545,7,0,7,7,0
3,1,16,1,1,4,112, man154.jpg, cue_1.jpg,1,1.8309,1,2,1.0831,1,2.016,0,4,0.8081
3,1,17,1,2,2,145, man191.jpg, cue_2.jpg,2,3.4038,2,2,1.3712,1,1.0873,1,4,0.5165
3,1,18,3,0,0,224, man310.jpg, ,3,1.8605,1,4,0.5981,7,0,7,7,0
3,1,19,3,0,0,26, man042.jpg, ,3,1.8903,1,4,1.9702,7,0,7,7,0
3,1,20,2,3,1,225, man311.jpg, cue_3.jpg,2,2.5973,1,4,0.9519,2,0.5117,1,4,0.3297
3,1,21,3,0,0,231, man321.jpg, ,1,1.4705,0,1,1.8427,1,1.1192,0,2,1.3817
3,1,22,1,3,1,101, man137.jpg, cue_3.jpg,2,1.0857,2,4,0.9458,2,0.4801,1,4,0.3895
3,1,23,1,3,1,40, man061.jpg, cue_3.jpg,2,2.5388,2,2,0.4957,2,0.4798,1,4,0.3555
3,1,24,2,2,2,141, man187.jpg, cue_2.jpg,2,1.4202,1,4,1.6799,1,0.4482,1,4,2.0859
3,1,25,3,0,0,223, man309.jpg, ,3,1.1237,1,4,0.436,7,0,7,7,0
3,1,26,3,0,0,19, man032.jpg, ,1,1.3832,0,3,0.9723,4,2.7519,0,1,0.991
3,1,27,2,4,3,10, man017.jpg, cue_4.jpg,2,1.2907,1,4,0.6282,3,0.4482,1,4,0.3898
3,1,28,1,1,4,91, man125.jpg, cue_1.jpg,2,2.5694,2,3,0.975,4,1.5037,1,4,1.1577
3,1,29,2,4,3,218, man303.jpg, cue_4.jpg,2,1.1627,1,4,0.5378,3,0.3838,1,4,0.3219
3,1,30,2,1,4,171, man233.jpg, cue_1.jpg,2,1.2258,1,4,0.5021,4,0.5439,1,4,0.4572
3,1,31,2,3,1,65, man094.jpg, cue_3.jpg,2,1.0676,1,4,0.4625,2,0.3835,1,4,0.3618
3,1,32,3,0,0,8, man015.jpg, ,1,1.7279,0,3,1.5911,4,1.3435,0,2,1.0351
3,1,33,2,1,4,188, man254.jpg, cue_1.jpg,1,1.8289,3,4,1.8478,4,0.6081,1,4,0.4313
3,1,34,3,0,0,161, man213.jpg, ,3,1.1555,1,4,0.9466,7,0,7,7,0
3,1,35,1,3,1,140, man186.jpg, cue_3.jpg,1,1.6319,1,3,0.8262,2,0.5121,1,4,0.354
3,1,36,2,3,1,57, man084.jpg, cue_3.jpg,2,1.1286,1,4,0.7611,2,0.4161,1,4,0.2945
3,1,37,1,3,1,43, man064.jpg, cue_3.jpg,2,2.5592,2,3,0.8837,2,0.6396,1,4,4.7066
3,1,38,1,4,3,16, man027.jpg, cue_4.jpg,1,3.0105,1,4,0.7556,3,0.5442,1,4,0.4925
3,1,39,2,4,3,46, man068.jpg, cue_4.jpg,2,1.3257,1,2,0.9176,3,0.5116,1,4,1.0645
3,1,40,2,2,2,193, man260.jpg, cue_2.jpg,2,1.825,1,1,0.436,1,0.7676,1,4,0.5439
3,1,41,3,0,0,117, man159.jpg, ,3,1.2466,1,4,0.762,7,0,7,7,0
3,1,42,3,0,0,217, man302.jpg, ,3,1.9829,1,4,0.3791,7,0,7,7,0
3,1,43,3,0,0,199, man275.jpg, ,3,2.4331,1,2,0.9228,7,0,7,7,0
3,1,44,3,0,0,187, man253.jpg, ,3,1.0978,1,4,0.6988,7,0,7,7,0
3,1,45,3,0,0,227, man313.jpg, ,1,2.8194,0,1,1.0366,3,1.0235,0,1,0.677
3,1,46,1,2,2,72, man104.jpg, cue_2.jpg,1,1.9799,1,4,0.6969,1,0.3839,1,4,0.3306
3,1,47,3,0,0,73, man105.jpg, ,3,2.7858,1,3,1.0514,7,0,7,7,0
3,1,48,3,0,0,103, man139.jpg, ,3,1.14,1,3,1.1399,7,0,7,7,0
3,1,49,2,4,3,98, man134.jpg, cue_4.jpg,2,1.7375,1,4,1.8722,3,0.3517,1,4,0.3536
3,1,50,2,2,2,151, man201.jpg, cue_2.jpg,2,2.4721,1,2,0.4624,1,0.4158,1,4,0.3941
3,1,51,1,2,2,52, man076.jpg, cue_2.jpg,1,1.6626,1,4,1.2085,1,0.416,1,4,0.4513
3,1,52,1,1,4,220, man305.jpg, cue_1.jpg,1,1.2217,1,3,1.3621,4,0.4159,1,4,1.4786
3,1,53,2,2,2,213, man297.jpg, cue_2.jpg,1,2.1734,3,2,0.7853,1,0.992,1,4,0.4543
3,1,54,1,3,1,194, man262.jpg, cue_3.jpg,1,3.4966,1,2,2.5157,2,0.4795,1,4,0.2631
3,1,55,2,4,3,124, man166.jpg, cue_4.jpg,2,3.297,1,2,0.7585,3,0.4479,1,4,0.3547
3,1,56,3,0,0,139, man185.jpg, ,3,1.5134,1,4,0.7295,7,0,7,7,0
3,1,57,1,2,2,169, man230.jpg, cue_2.jpg,1,1.4395,1,3,0.5952,1,0.8318,1,4,0.5184
3,1,58,1,3,1,3, man005.jpg, cue_3.jpg,1,1.4458,1,3,0.8888,2,0.5442,1,4,1.2897
3,1,59,2,2,2,192, man259.jpg, cue_2.jpg,2,1.2273,1,3,0.6636,1,0.5438,1,4,0.5482
3,1,60,1,4,3,69, man100.jpg, cue_4.jpg,1,1.0262,1,3,0.7562,3,0.4795,1,4,0.5457
3,1,61,2,2,2,27, man044.jpg, cue_2.jpg,2,1.4399,1,4,0.8188,1,0.4801,1,4,0.6837
3,1,62,3,0,0,168, man229.jpg, ,1,2.1786,0,2,1.0804,3,0.9281,0,1,0.8991
3,1,63,2,3,1,179, man244.jpg, cue_3.jpg,2,1.7948,1,4,0.5992,2,0.4158,1,4,0.3639
3,1,64,3,0,0,78, man110.jpg, ,3,1.2495,1,4,0.7311,7,0,7,7,0
3,1,65,3,0,0,126, man168.jpg, ,3,2.1157,1,4,0.3788,7,0,7,7,0
3,1,66,2,4,3,134, man179.jpg, cue_4.jpg,2,1.0558,1,4,0.6268,3,0.512,1,4,0.3861
3,1,67,3,0,0,41, man062.jpg, ,3,1.3515,1,4,0.621,7,0,7,7,0
3,1,68,2,1,4,120, man162.jpg, cue_1.jpg,2,1.5133,1,4,0.6338,4,0.8,1,4,0.4285
3,1,69,1,2,2,100, man136.jpg, cue_2.jpg,1,2.432,1,4,1.4018,1,0.7358,1,3,1.6796
3,1,70,3,0,0,239, man333.jpg, ,3,2.5871,1,4,1.1692,7,0,7,7,0
3,1,71,1,1,4,15, man025.jpg, cue_1.jpg,1,3.1413,1,4,0.6557,4,0.5118,1,4,0.4955
3,1,72,1,2,2,219, man304.jpg, cue_2.jpg,1,3.3594,1,3,0.7222,1,0.6397,1,4,1.0315
3,1,73,2,1,4,207, man284.jpg, cue_1.jpg,2,2.1459,1,3,2.7435,4,0.352,1,4,1.8928
3,1,74,3,0,0,146, man193.jpg, ,3,1.1949,1,4,0.6326,7,0,7,7,0
3,1,75,1,1,4,37, man058.jpg, cue_1.jpg,1,1.7631,1,3,1.3052,4,0.7998,1,4,0.4154
3,1,76,2,2,2,58, man085.jpg, cue_2.jpg,2,1.7632,1,1,1.1773,1,0.7033,1,4,1.8654
3,1,77,1,2,2,175, man238.jpg, cue_2.jpg,1,2.4324,1,4,1.5912,1,0.5115,1,4,0.3528
3,1,78,3,0,0,92, man126.jpg, ,3,1.063,1,4,0.7624,7,0,7,7,0
3,1,79,2,1,4,84, man117.jpg, cue_1.jpg,2,1.8874,1,2,1.1027,4,0.4801,1,4,0.5248
3,1,80,2,1,4,200, man276.jpg, cue_1.jpg,2,1.8681,1,4,1.3888,4,0.4801,1,4,0.4603
3,1,81,1,2,2,228, man314.jpg, cue_2.jpg,1,1.4719,1,2,0.7534,1,0.544,1,4,0.4261
3,1,82,2,3,1,202, man278.jpg, cue_3.jpg,1,1.2134,3,2,6.9381,1,3.2961,0,1,2.8605
3,1,83,1,4,3,143, man189.jpg, cue_4.jpg,2,2.1507,2,2,0.6232,3,0.544,1,4,0.4294
3,1,84,3,0,0,160, man212.jpg, ,3,1.1524,1,4,0.3674,7,0,7,7,0
3,1,85,1,1,4,176, man240.jpg, cue_1.jpg,3,1.0916,0,4,0.4069,7,0,7,7,0
3,1,86,2,3,1,1, man002.jpg, cue_3.jpg,2,1.6757,1,4,0.7572,2,0.4794,1,4,0.3837
3,1,87,1,1,4,136, man182.jpg, cue_1.jpg,1,3.9707,1,4,0.6857,4,0.5118,1,4,0.4906
3,1,88,2,2,2,35, man056.jpg, cue_2.jpg,1,3.3713,3,1,0.7178,1,0.5436,1,4,0.3277
3,1,89,1,2,2,152, man202.jpg, cue_2.jpg,1,3.2631,1,4,1.3977,1,0.5117,1,2,1.4767
3,1,90,2,4,3,36, man057.jpg, cue_4.jpg,2,2.0437,1,4,0.4056,3,0.5116,1,4,0.3663
3,1,91,1,4,3,118, man160.jpg, cue_4.jpg,2,1.2203,2,3,0.8805,3,1.856,1,3,0.8749
3,1,92,1,4,3,50, man073.jpg, cue_4.jpg,2,1.3411,2,2,0.6285,3,0.48,1,4,0.4851
3,1,93,3,0,0,29, man047.jpg, ,3,1.222,1,4,1.1041,7,0,7,7,0
3,1,94,2,3,1,119, man161.jpg, cue_3.jpg,2,1.2251,1,2,1.3337,2,0.8316,1,3,1.4177
3,1,95,3,0,0,184, man249.jpg, ,3,1.4114,1,4,0.568,7,0,7,7,0
3,1,96,1,4,3,31, man050.jpg, cue_4.jpg,1,1.6694,1,3,0.687,3,0.9276,1,4,1.1925
3,1,97,1,2,2,148, man197.jpg, cue_2.jpg,1,1.3261,1,2,1.2697,1,0.4483,1,4,1.3891
3,1,98,3,0,0,138, man184.jpg, ,3,3.3363,1,2,1.0823,7,0,7,7,0
3,1,99,3,0,0,4, man007.jpg, ,3,1.2201,1,3,1.1985,7,0,7,7,0
3,1,100,1,1,4,110, man152.jpg, cue_1.jpg,1,1.4753,1,4,0.661,4,0.6399,1,4,0.4299
3,1,101,1,4,3,60, man088.jpg, cue_4.jpg,1,1.889,1,4,0.6891,3,0.6399,1,4,0.5525
3,1,102,3,0,0,25, man041.jpg, ,3,1.6064,1,2,0.6266,7,0,7,7,0
3,1,103,1,4,3,164, man221.jpg, cue_4.jpg,1,1.2743,1,4,0.5674,3,0.4481,1,4,0.3964
3,1,104,1,1,4,205, man282.jpg, cue_1.jpg,1,1.1848,1,3,0.7503,4,0.6399,1,4,1.2189
3,1,105,3,0,0,111, man153.jpg, ,3,1.0931,1,4,0.3428,7,0,7,7,0
3,1,106,1,3,1,190, man257.jpg, cue_3.jpg,1,2.1094,1,2,1.0445,2,0.5116,1,2,2.0181
3,1,107,2,1,4,85, man118.jpg, cue_1.jpg,2,1.2505,1,4,0.3654,4,0.9922,1,4,0.675
3,1,108,3,0,0,11, man019.jpg, ,3,1.1007,1,3,1.198,7,0,7,7,0
3,1,109,1,3,1,22, man036.jpg, cue_3.jpg,1,1.2805,1,2,1.1148,2,0.4795,1,4,0.3893
3,1,110,2,4,3,197, man271.jpg, cue_4.jpg,2,1.5954,1,3,1.0482,3,0.5119,1,4,0.5818
3,1,111,2,1,4,132, man177.jpg, cue_1.jpg,2,1.2506,1,4,0.5553,4,0.5122,1,4,0.4471
3,1,112,1,1,4,99, man135.jpg, cue_1.jpg,1,1.1533,1,4,0.6245,4,0.5118,1,4,0.4157
3,1,113,1,1,4,230, man316.jpg, cue_1.jpg,1,1.0245,1,4,0.5032,4,0.4479,1,4,0.4314
3,1,114,2,3,1,86, man120.jpg, cue_3.jpg,1,1.2504,3,3,1.5493,2,0.48,1,4,0.8392
3,1,115,3,0,0,17, man029.jpg, ,3,1.0656,1,4,0.4429,7,0,7,7,0
3,1,116,1,4,3,177, man241.jpg, cue_4.jpg,1,1.0552,1,3,1.6502,3,0.6718,1,4,0.686
3,1,117,2,2,2,13, man023.jpg, cue_2.jpg,2,1.6409,1,1,0.6597,1,0.5118,1,4,0.5454
3,1,118,2,2,2,155, man206.jpg, cue_2.jpg,1,1.6635,3,1,1.2414,1,0.9599,1,4,0.9727
3,1,119,3,0,0,116, man158.jpg, ,3,1.5451,1,3,2.0398,7,0,7,7,0
3,1,120,1,4,3,6, man013.jpg, cue_4.jpg,2,1,2,4,0.4933,3,0.5116,1,4,0.4179
3,1,121,2,3,1,163, man217.jpg, cue_3.jpg,2,6.0538,1,1,1.2717,2,0.5118,1,4,0.492
3,1,122,2,4,3,82, man114.jpg, cue_4.jpg,1,1.5171,3,1,1.0049,1,0.9597,0,3,2.1532
3,1,123,3,0,0,95, man130.jpg, ,3,1.3164,1,4,0.3646,7,0,7,7,0
3,1,124,3,0,0,64, man093.jpg, ,3,2.434,1,4,0.3153,7,0,7,7,0
3,1,125,2,1,4,157, man208.jpg, cue_1.jpg,1,1.4732,3,3,0.9501,4,0.5118,1,4,0.5196
3,1,126,1,3,1,56, man082.jpg, cue_3.jpg,1,1.2549,1,2,1.9699,2,0.6402,1,4,0.355
3,1,127,3,0,0,237, man330.jpg, ,2,2.5382,0,1,0.527,4,2.432,0,1,0.4171
3,1,128,2,1,4,222, man307.jpg, cue_1.jpg,2,2.0853,1,1,0.4934,4,0.4798,1,4,0.5152
3,1,129,3,0,0,173, man236.jpg, ,3,1.2189,1,1,0.4944,7,0,7,7,0
3,1,130,3,0,0,214, man298.jpg, ,3,1.0233,1,3,0.7559,7,0,7,7,0
3,1,131,2,1,4,75, man107.jpg, cue_1.jpg,1,1.3859,3,2,0.9751,4,0.6397,1,4,0.4263
3,1,132,2,3,1,158, man209.jpg, cue_3.jpg,1,1.3417,3,3,0.7887,2,0.448,1,4,0.4477
3,1,133,3,0,0,212, man296.jpg, ,1,3.0099,0,2,0.8836,1,2.3357,0,1,0.7154
3,1,134,1,4,3,93, man128.jpg, cue_4.jpg,1,2.2397,1,3,0.5964,3,0.5762,1,4,0.834
3,1,135,3,0,0,122, man164.jpg, ,3,1.8603,1,1,0.5627,7,0,7,7,0
3,1,136,3,0,0,48, man071.jpg, ,3,0.9634,1,3,0.5389,7,0,7,7,0
3,1,137,2,1,4,149, man198.jpg, cue_1.jpg,1,2.5377,3,1,0.5586,4,0.4795,1,4,0.4174
3,1,138,2,2,2,7, man014.jpg, cue_2.jpg,1,5.7016,3,1,1.2371,1,0.4799,1,4,0.2697
3,1,139,2,4,3,201, man277.jpg, cue_4.jpg,2,1.2236,1,3,0.7557,3,0.6084,1,4,1.9937
3,1,140,2,1,4,128, man170.jpg, cue_1.jpg,2,1.6435,1,2,0.6945,4,0.5435,1,4,0.4813
3,1,141,3,0,0,133, man178.jpg, ,3,1.2823,1,3,0.8266,7,0,7,7,0
3,1,142,1,2,2,30, man048.jpg, cue_2.jpg,1,1.6627,1,3,0.9207,1,0.4476,1,4,0.3987
3,1,143,3,0,0,183, man248.jpg, ,3,1.313,1,4,0.251,7,0,7,7,0
3,1,144,3,0,0,130, man172.jpg, ,3,0.9669,1,4,0.2054,7,0,7,7,0
3,1,145,1,4,3,61, man089.jpg, cue_4.jpg,1,1.0982,1,4,1.019,3,0.3835,1,4,0.3987
3,1,146,3,0,0,21, man035.jpg, ,3,0.9011,1,4,0.2389,7,0,7,7,0
3,1,147,2,3,1,236, man329.jpg, cue_3.jpg,2,1.1304,1,4,0.6027,2,0.3519,1,4,0.3533
3,1,148,1,1,4,109, man150.jpg, cue_1.jpg,1,1.0621,1,4,1.0507,4,0.64,1,4,0.3549
3,1,149,1,2,2,203, man279.jpg, cue_2.jpg,1,1.1295,1,3,1.1779,1,0.415,1,4,0.3237
3,1,150,2,1,4,129, man171.jpg, cue_1.jpg,2,1.1174,1,4,0.3658,4,0.6722,1,4,0.449
3,1,151,3,0,0,55, man079.jpg, ,3,0.9955,1,3,0.9534,7,0,7,7,0
3,1,152,3,0,0,226, man312.jpg, ,3,1.0948,1,4,0.3767,7,0,7,7,0
3,1,153,2,4,3,14, man024.jpg, cue_4.jpg,2,0.9901,1,4,0.628,3,0.3835,1,4,0.3288
3,1,154,1,4,3,28, man045.jpg, cue_4.jpg,2,0.8957,2,3,0.666,3,0.5118,1,4,0.3596
3,1,155,1,3,1,81, man113.jpg, cue_3.jpg,2,0.9894,2,2,0.8515,2,0.4156,1,4,0.3016
3,1,156,3,0,0,174, man237.jpg, ,3,1.7983,1,3,0.6027,7,0,7,7,0
3,1,157,1,4,3,156, man207.jpg, cue_4.jpg,1,1.4788,1,3,0.9205,3,1.1201,1,4,0.2578
3,1,158,3,0,0,62, man091.jpg, ,3,1.6749,1,1,0.3419,7,0,7,7,0
3,1,159,1,1,4,235, man328.jpg, cue_1.jpg,1,1.5325,1,4,0.699,4,0.9596,1,4,0.6135
3,1,160,1,2,2,39, man060.jpg, cue_2.jpg,1,2.1127,1,3,0.8239,1,0.48,1,4,0.8641
3,1,161,2,1,4,83, man115.jpg, cue_1.jpg,2,1.4409,1,1,0.5628,4,1.184,1,4,0.6178
3,1,162,2,2,2,211, man295.jpg, cue_2.jpg,1,1.0931,3,1,1.4312,1,0.4156,1,4,1.7025
3,1,163,3,0,0,77, man109.jpg, ,1,1.4142,0,2,0.6671,2,0.5116,0,2,1.6087
3,1,164,2,3,1,144, man190.jpg, cue_3.jpg,2,1.1948,1,2,0.7283,2,0.5758,1,4,0.6086
3,1,165,2,4,3,216, man301.jpg, cue_4.jpg,2,1.6123,1,3,1.7525,3,1.8879,1,4,0.8308
3,1,166,1,2,2,147, man196.jpg, cue_2.jpg,1,1.2812,1,2,1.7864,1,0.7039,1,3,1.1537
3,1,167,2,4,3,5, man010.jpg, cue_4.jpg,1,1.2029,3,3,0.7516,3,0.5762,1,4,0.8071
3,1,168,2,2,2,102, man138.jpg, cue_2.jpg,1,1.0347,3,3,0.6868,1,0.576,1,3,2.057
3,1,169,3,0,0,38, man059.jpg, ,3,1.2241,1,4,1.1389,7,0,7,7,0
3,1,170,3,0,0,47, man070.jpg, ,3,0.9699,1,3,0.5289,7,0,7,7,0
3,1,171,1,3,1,221, man306.jpg, cue_3.jpg,1,1.2781,1,4,0.6964,2,0.512,1,4,0.4519
3,1,172,1,3,1,135, man180.jpg, cue_3.jpg,1,1.1588,1,4,0.5663,2,0.4156,1,4,0.2999
3,1,173,3,0,0,210, man291.jpg, ,3,1.0607,1,4,0.3117,7,0,7,7,0
3,1,174,2,2,2,186, man252.jpg, cue_2.jpg,1,1.2158,3,3,0.5071,1,1.2801,1,4,1.0886
3,1,175,3,0,0,180, man245.jpg, ,3,1.3202,1,4,0.2699,7,0,7,7,0
3,1,176,3,0,0,178, man242.jpg, ,3,0.9382,1,4,0.2427,7,0,7,7,0
3,1,177,3,0,0,79, man111.jpg, ,3,1.3414,1,4,0.2767,7,0,7,7,0
3,1,178,2,2,2,232, man322.jpg, cue_2.jpg,1,1.15,3,2,1.0674,1,0.4478,1,3,0.813
3,1,179,2,1,4,67, man096.jpg, cue_1.jpg,2,1.1518,1,4,0.9746,4,0.896,1,4,0.3973
3,1,180,2,3,1,170, man231.jpg, cue_3.jpg,2,1.1882,1,1,0.6896,2,0.5442,1,4,0.4292
3,1,181,1,3,1,104, man141.jpg, cue_3.jpg,2,1.5683,2,2,0.9739,2,0.5118,1,4,0.4306
3,1,182,1,1,4,234, man327.jpg, cue_1.jpg,1,2.1458,1,4,0.6317,4,0.512,1,4,0.4226
3,1,183,1,1,4,159, man210.jpg, cue_1.jpg,1,1.0025,1,4,0.4319,4,0.4475,1,4,0.3941
3,1,184,2,3,1,88, man122.jpg, cue_3.jpg,1,1.3911,3,3,1.8444,2,0.3838,1,4,0.6137
3,1,185,1,3,1,24, man040.jpg, cue_3.jpg,1,1.0576,1,4,0.4366,2,0.384,1,4,0.3212
3,1,186,3,0,0,185, man250.jpg, ,3,1.2569,1,2,0.8517,7,0,7,7,0
3,1,187,1,4,3,32, man052.jpg, cue_4.jpg,1,1.7332,1,4,1.0831,3,0.4161,1,4,0.333
3,1,188,2,4,3,90, man124.jpg, cue_4.jpg,2,1.4123,1,3,1.1125,3,0.4482,1,4,0.3249
3,1,189,2,1,4,189, man255.jpg, cue_1.jpg,2,1.5977,1,1,0.8903,4,0.5436,1,4,0.5892
3,1,190,2,3,1,127, man169.jpg, cue_3.jpg,2,1.7677,1,2,0.4623,2,0.4799,1,4,0.6466
3,1,191,2,3,1,80, man112.jpg, cue_3.jpg,2,1.5046,1,1,0.6248,2,0.4797,1,4,0.3672
3,1,192,3,0,0,198, man273.jpg, ,3,1.16,1,4,0.3751,7,0,7,7,0
3,1,193,1,3,1,131, man174.jpg, cue_3.jpg,1,1.3251,1,2,1.1729,2,0.5759,1,4,0.3605
3,1,194,2,3,1,121, man163.jpg, cue_3.jpg,2,1.1205,1,2,0.5293,2,0.4156,1,4,0.3286
3,1,195,2,4,3,123, man165.jpg, cue_4.jpg,1,1.6957,3,2,0.7924,3,0.448,1,4,0.3862
3,1,196,3,0,0,191, man258.jpg, ,3,1.0967,1,4,0.6025,7,0,7,7,0
3,1,197,3,0,0,68, man099.jpg, ,3,0.9663,1,4,0.3012,7,0,7,7,0
3,1,198,2,1,4,137, man183.jpg, cue_1.jpg,2,1.3179,1,3,0.5258,4,1.1202,1,4,0.3919
3,1,199,1,4,3,63, man092.jpg, cue_4.jpg,1,1.0842,1,4,0.3662,3,0.4159,1,4,0.3326
3,1,200,2,4,3,209, man289.jpg, cue_4.jpg,1,1.0899,3,3,0.5017,3,0.4481,1,4,0.3973
3,1,201,3,0,0,195, man267.jpg, ,3,1.0255,1,2,0.8863,7,0,7,7,0
3,1,202,3,0,0,108, man149.jpg, ,3,1.0301,1,2,0.4111,7,0,7,7,0
3,1,203,3,0,0,172, man234.jpg, ,3,1.1508,1,2,1.0379,7,0,7,7,0
3,1,204,1,3,1,215, man299.jpg, cue_3.jpg,1,1.2559,1,3,0.9145,2,0.4477,1,4,0.4556
3,1,205,3,0,0,89, man123.jpg, ,3,1.0348,1,2,0.6548,7,0,7,7,0
3,1,206,3,0,0,233, man326.jpg, ,3,1.0648,1,1,0.3794,7,0,7,7,0
3,1,207,1,1,4,114, man156.jpg, cue_1.jpg,1,2.527,1,3,2.9349,4,0.5119,1,4,0.6133
3,1,208,3,0,0,44, man066.jpg, ,3,1.1526,1,1,0.848,7,0,7,7,0
3,1,209,3,0,0,74, man106.jpg, ,3,1.3772,1,4,0.5031,7,0,7,7,0
3,1,210,1,4,3,106, man145.jpg, cue_4.jpg,1,1.4794,1,4,0.6013,3,0.6079,1,4,0.5178
3,1,211,3,0,0,96, man131.jpg, ,3,0.9652,1,4,0.6028,7,0,7,7,0
3,1,212,3,0,0,97, man133.jpg, ,3,0.9685,1,4,0.3008,7,0,7,7,0
3,1,213,1,3,1,33, man054.jpg, cue_3.jpg,1,1.2561,1,3,0.5947,2,0.4162,1,4,0.4236
3,1,214,2,2,2,206, man283.jpg, cue_2.jpg,1,1.1631,3,2,0.7941,1,0.4157,1,4,0.485
3,1,215,1,1,4,42, man063.jpg, cue_1.jpg,2,1.8312,2,1,0.9543,4,0.4476,1,4,0.3989
3,1,216,2,3,1,87, man121.jpg, cue_3.jpg,1,1.0274,3,1,1.4636,2,0.4474,1,4,0.3913
3,1,217,1,1,4,51, man075.jpg, cue_1.jpg,1,2.54,1,2,1.233,4,0.6078,1,3,1.3142
3,1,218,1,3,1,229, man315.jpg, cue_3.jpg,1,1.3767,1,4,0.3744,2,0.96,1,4,0.5257
3,1,219,3,0,0,196, man268.jpg, ,3,1.6918,1,2,0.4373,7,0,7,7,0
3,1,220,3,0,0,105, man144.jpg, ,1,1.9604,0,1,0.5339,1,1.1516,0,1,0.3966
3,1,221,2,4,3,54, man078.jpg, cue_4.jpg,1,1.2511,3,2,1.102,3,0.5118,1,4,0.4253
3,1,222,1,2,2,154, man205.jpg, cue_2.jpg,1,1.0693,1,3,0.8767,1,0.5123,1,4,1.0601
3,1,223,2,3,1,165, man222.jpg, cue_3.jpg,1,1.6452,3,2,1.5279,2,0.4161,1,4,0.4533
3,1,224,3,0,0,113, man155.jpg, ,3,1.3838,1,2,0.9414,7,0,7,7,0
3,1,225,3,0,0,181, man246.jpg, ,3,0.9714,1,3,1.3618,7,0,7,7,0
3,1,226,2,4,3,9, man016.jpg, cue_4.jpg,1,1.3098,3,3,1.2063,3,0.3201,1,4,0.2934
3,1,227,1,3,1,166, man223.jpg, cue_3.jpg,1,1.0539,1,3,0.5613,2,0.4478,1,4,0.3548
3,1,228,2,3,1,94, man129.jpg, cue_3.jpg,2,2.1398,1,1,1.3296,2,0.8317,1,4,0.71
3,1,229,1,1,4,2, man004.jpg, cue_1.jpg,1,1.1792,1,4,0.6026,4,0.5757,1,4,0.5209
3,1,230,3,0,0,71, man102.jpg, ,3,1.2245,1,2,0.8527,7,0,7,7,0
3,1,231,3,0,0,240, man336.jpg, ,3,1.0285,1,4,0.3152,7,0,7,7,0
3,1,232,1,2,2,59, man086.jpg, cue_2.jpg,1,0.9947,1,4,1.593,1,0.512,1,4,0.3195
3,1,233,1,2,2,204, man281.jpg, cue_2.jpg,1,1.0608,1,3,0.9546,1,1.8239,1,2,1.1251
3,1,234,1,2,2,167, man228.jpg, cue_2.jpg,1,1.2915,1,2,0.8497,1,0.3834,1,3,1.6958
3,1,235,3,0,0,182, man247.jpg, ,3,1.3735,1,3,0.6594,7,0,7,7,0
3,1,236,2,4,3,66, man095.jpg, cue_4.jpg,1,1.9465,3,2,2.363,3,0.4799,1,3,1.5387
3,1,237,1,2,2,23, man039.jpg, cue_2.jpg,3,1.9255,0,1,0.5661,7,0,7,7,0
3,1,238,1,4,3,20, man034.jpg, cue_4.jpg,1,1.8278,1,3,0.9187,3,0.416,1,4,0.8436
3,1,239,2,2,2,49, man072.jpg, cue_2.jpg,2,1.2157,1,1,0.4113,1,0.6399,1,4,0.4151
3,1,240,1,3,1,150, man199.jpg, cue_3.jpg,1,1.3467,1,4,0.4254,2,0.4161,1,4,0.3556
4,1,1,1,4,4,187, man253.jpg, cue_4.jpg,1,9.9156,1,1,2.7632,3,4.8313,1,4,1.228
4,1,2,3,0,0,59, man086.jpg, ,3,2.2695,1,4,0.9738,7,0,7,7,0
4,1,3,2,2,2,181, man246.jpg, cue_2.jpg,2,2.1696,1,4,2.2525,2,6.5915,1,2,1.8344
4,1,4,3,0,0,70, man101.jpg, ,3,2.0506,1,4,1.2105,7,0,7,7,0
4,1,5,1,1,1,217, man302.jpg, cue_1.jpg,2,6.2068,2,3,3.1608,1,1.6306,1,4,1.1201
4,1,6,2,1,1,127, man169.jpg, cue_1.jpg,2,2.2145,1,3,1.9134,1,0.7673,1,4,0.6481
4,1,7,3,0,0,25, man041.jpg, ,3,1.5048,1,4,1.2024,7,0,7,7,0
4,1,8,2,3,3,144, man190.jpg, cue_3.jpg,2,2.4374,1,3,1.4864,4,1.1833,1,4,1.1017
4,1,9,1,1,1,159, man210.jpg, cue_1.jpg,1,4.7409,1,3,1.2294,1,1.0875,1,4,1.2275
4,1,10,2,3,3,240, man336.jpg, cue_3.jpg,2,2.8769,1,3,0.9159,4,0.9913,1,4,1.1548
4,1,11,1,4,4,100, man136.jpg, cue_4.jpg,2,5.2235,2,3,0.9866,3,1.0873,1,4,0.7403
4,1,12,3,0,0,97, man133.jpg, ,3,1.3549,1,4,1.2016,7,0,7,7,0
4,1,13,1,2,2,61, man089.jpg, cue_2.jpg,1,2.8524,1,3,0.9859,2,0.8317,1,4,0.6711
4,1,14,1,4,4,216, man301.jpg, cue_4.jpg,1,1.3844,1,4,0.7496,3,0.7034,1,4,0.7174
4,1,15,2,4,4,66, man095.jpg, cue_4.jpg,1,3.6552,3,3,1.3894,3,1.7275,1,4,0.6489
4,1,16,3,0,0,130, man172.jpg, ,3,1.1237,1,4,0.6601,7,0,7,7,0
4,1,17,3,0,0,29, man047.jpg, ,3,1.0534,1,4,0.5605,7,0,7,7,0
4,1,18,2,3,3,195, man267.jpg, cue_3.jpg,2,8.3181,1,2,0.817,4,0.7672,1,4,0.6217
4,1,19,2,3,3,211, man295.jpg, cue_3.jpg,1,4.2331,3,3,2.1033,4,0.5438,1,4,0.5193
4,1,20,2,3,3,202, man278.jpg, cue_3.jpg,2,1.4149,1,4,0.9546,4,11.1995,1,2,0.8772
4,1,21,2,4,4,68, man099.jpg, cue_4.jpg,2,6.0776,1,3,1.1338,3,0.6396,1,4,0.8344
4,1,22,2,3,3,167, man228.jpg, cue_3.jpg,2,2.5007,1,3,0.9229,4,0.7037,1,4,0.6128
4,1,23,2,1,1,38, man059.jpg, cue_1.jpg,2,3.0418,1,4,0.7538,1,0.6398,1,4,0.5502
4,1,24,3,0,0,14, man024.jpg, ,3,1.1884,1,4,0.6262,7,0,7,7,0
4,1,25,1,2,2,35, man056.jpg, cue_2.jpg,1,2.2368,1,3,1.1343,2,0.7035,1,4,0.543
4,1,26,1,1,1,190, man257.jpg, cue_1.jpg,1,8.7981,1,2,3.5006,1,2.1434,1,2,1.8393
4,1,27,1,3,3,148, man197.jpg, cue_3.jpg,2,2.6316,2,3,1.2089,4,2.1111,1,4,1.069
4,1,28,1,3,3,156, man207.jpg, cue_3.jpg,1,2.3736,1,4,1.0736,4,5.5997,1,2,1.0004
4,1,29,2,2,2,47, man070.jpg, cue_2.jpg,2,7.8761,1,2,1.4338,2,5.8873,1,2,0.4859
4,1,30,3,0,0,137, man183.jpg, ,3,1.6068,1,4,0.624,7,0,7,7,0
4,1,31,3,0,0,178, man242.jpg, ,3,0.9897,1,4,0.5957,7,0,7,7,0
4,1,32,2,3,3,188, man254.jpg, cue_3.jpg,1,1.6319,3,4,0.9866,4,4.1276,1,3,0.7717
4,1,33,1,4,4,111, man153.jpg, cue_4.jpg,1,2.2167,1,3,1.6907,2,0.7676,0,3,2.5634
4,1,34,2,1,1,8, man015.jpg, cue_1.jpg,1,2.1088,3,4,0.9162,1,0.7033,1,4,0.7028
4,1,35,1,2,2,113, man155.jpg, cue_2.jpg,1,1.7346,1,3,0.8132,2,0.8313,1,4,0.5833
4,1,36,3,0,0,98, man134.jpg, ,3,1.0279,1,4,0.7285,7,0,7,7,0
4,1,37,1,1,1,238, man332.jpg, cue_1.jpg,1,1.375,1,4,0.594,1,0.5758,1,4,0.5146
4,1,38,1,2,2,54, man078.jpg, cue_2.jpg,1,4.9302,1,2,1.0092,2,3.5513,1,2,2.6585
4,1,39,3,0,0,131, man174.jpg, ,3,1.1285,1,4,0.6008,7,0,7,7,0
4,1,40,3,0,0,104, man141.jpg, ,3,1.157,1,4,0.5964,7,0,7,7,0
4,1,41,1,4,4,147, man196.jpg, cue_4.jpg,1,5.0539,1,3,0.6032,2,0.5437,0,3,0.5872
4,1,42,3,0,0,189, man255.jpg, ,3,0.9348,1,4,0.5282,7,0,7,7,0
4,1,43,2,3,3,69, man100.jpg, cue_3.jpg,1,1.759,3,4,0.5968,4,0.5434,1,4,0.4839
4,1,44,1,2,2,9, man016.jpg, cue_2.jpg,1,1.1231,1,4,0.5332,2,0.5115,1,4,0.5205
4,1,45,2,2,2,19, man032.jpg, cue_2.jpg,1,1.576,3,4,0.5976,2,11.0076,1,2,0.8784
4,1,46,3,0,0,7, man014.jpg, ,3,1.1826,1,4,0.4283,7,0,7,7,0
4,1,47,2,1,1,115, man157.jpg, cue_1.jpg,2,3.548,1,3,0.6022,1,0.5438,1,3,0.4893
4,1,48,2,4,4,101, man137.jpg, cue_4.jpg,2,1.7703,1,4,0.5274,3,0.5115,1,4,0.4507
4,1,49,1,2,2,92, man126.jpg, cue_2.jpg,1,2.789,1,3,2.0954,4,0.7358,0,3,0.5518
4,1,50,2,4,4,224, man310.jpg, cue_4.jpg,1,3.782,3,3,1.4618,3,4.6395,1,3,0.4542
4,1,51,1,3,3,77, man109.jpg, cue_3.jpg,1,1.1926,1,4,0.5022,4,0.4478,1,4,0.4296
4,1,52,3,0,0,173, man236.jpg, ,3,0.8967,1,4,0.5069,7,0,7,7,0
4,1,53,2,2,2,237, man330.jpg, cue_2.jpg,2,2.091,1,3,0.6912,2,0.4794,1,3,0.4167
4,1,54,3,0,0,121, man163.jpg, ,3,1.0285,1,4,0.4731,7,0,7,7,0
4,1,55,2,1,1,112, man154.jpg, cue_1.jpg,2,1.64,1,3,0.6937,1,0.5115,1,3,0.4498
4,1,56,1,1,1,171, man233.jpg, cue_1.jpg,2,2.3876,2,3,1.7107,1,1.4076,1,3,0.5551
4,1,57,2,2,2,192, man259.jpg, cue_2.jpg,2,2.2812,1,4,0.7614,2,0.5114,1,4,0.418
4,1,58,1,4,4,30, man048.jpg, cue_4.jpg,2,7.2386,2,2,0.7908,4,0.5111,0,3,0.7029
4,1,59,2,3,3,116, man158.jpg, cue_3.jpg,2,1.2547,1,4,0.4655,4,1.2798,1,4,0.5194
4,1,60,3,0,0,183, man248.jpg, ,3,1.0629,1,4,0.4102,7,0,7,7,0
4,1,61,3,0,0,234, man327.jpg, ,3,1.246,1,4,0.4735,7,0,7,7,0
4,1,62,3,0,0,55, man079.jpg, ,3,1.1313,1,4,0.4108,7,0,7,7,0
4,1,63,1,3,3,164, man221.jpg, cue_3.jpg,1,1.5994,1,4,0.5066,4,0.7675,1,4,0.4856
4,1,64,1,3,3,74, man106.jpg, cue_3.jpg,1,1.5738,1,4,0.4042,4,0.4473,1,4,0.3511
4,1,65,2,2,2,196, man268.jpg, cue_2.jpg,1,1.5097,3,2,0.438,2,1.4714,1,4,0.5161
4,1,66,2,2,2,17, man029.jpg, cue_2.jpg,2,3.1724,1,3,1.9667,2,1.6635,1,3,0.7415
4,1,67,2,4,4,141, man187.jpg, cue_4.jpg,2,4.5239,1,3,0.5576,3,0.5755,1,3,0.4294
4,1,68,2,3,3,26, man042.jpg, cue_3.jpg,2,3.5523,1,3,2.2349,4,0.4476,1,3,1.002
4,1,69,2,4,4,73, man105.jpg, cue_4.jpg,2,1.5412,1,3,1.7162,3,0.6715,1,3,0.5107
4,1,70,2,1,1,95, man130.jpg, cue_1.jpg,2,1.8864,1,4,0.5905,1,0.5115,1,4,0.4789
4,1,71,1,4,4,120, man162.jpg, cue_4.jpg,1,1.8547,1,4,1.8096,3,0.5756,1,4,0.4929
4,1,72,1,3,3,203, man279.jpg, cue_3.jpg,1,1.597,1,3,0.6978,4,1.7915,1,3,0.6403
4,1,73,3,0,0,215, man299.jpg, ,3,0.9709,1,4,0.4976,7,0,7,7,0
4,1,74,1,2,2,80, man112.jpg, cue_2.jpg,1,1.9844,1,3,2.35,3,3.1676,0,3,0.6448
4,1,75,2,3,3,84, man117.jpg, cue_3.jpg,1,1.3756,3,4,0.8215,4,3.0716,1,3,0.8637
4,1,76,1,3,3,58, man085.jpg, cue_3.jpg,2,4.1619,2,3,0.5309,4,0.4795,1,3,0.7422
4,1,77,3,0,0,4, man007.jpg, ,3,1.0853,1,4,1.0713,7,0,7,7,0
4,1,78,1,1,1,20, man034.jpg, cue_1.jpg,2,2.3437,2,3,0.4677,1,0.5435,1,3,0.4577
4,1,79,3,0,0,64, man093.jpg, ,3,1.7233,1,4,0.5625,7,0,7,7,0
4,1,80,3,0,0,180, man245.jpg, ,3,1.056,1,4,0.4974,7,0,7,7,0
4,1,81,3,0,0,91, man125.jpg, ,3,0.7716,1,4,0.4668,7,0,7,7,0
4,1,82,2,2,2,182, man247.jpg, cue_2.jpg,1,5.9244,3,2,1.3704,2,0.8634,1,4,0.8775
4,1,83,3,0,0,48, man071.jpg, ,3,0.8593,1,4,0.8253,7,0,7,7,0
4,1,84,1,2,2,36, man057.jpg, cue_2.jpg,1,2.7156,1,3,0.9214,2,0.5438,1,4,0.4271
4,1,85,1,4,4,114, man156.jpg, cue_4.jpg,1,3.4222,1,3,0.5902,3,0.5436,1,4,0.3979
4,1,86,2,1,1,205, man282.jpg, cue_1.jpg,3,1.5042,0,4,0.7227,7,0,7,7,0
4,1,87,2,4,4,27, man044.jpg, cue_4.jpg,2,1.1618,1,4,0.6328,4,3.8396,0,4,1.4527
4,1,88,1,1,1,85, man118.jpg, cue_1.jpg,2,1.413,2,4,0.5055,1,0.5114,1,4,0.5261
4,1,89,1,3,3,45, man067.jpg, cue_3.jpg,1,2.333,1,4,0.539,4,0.5759,1,4,0.4915
4,1,90,1,1,1,138, man184.jpg, cue_1.jpg,2,2.9244,2,3,0.4654,1,1.5354,1,3,0.4286
4,1,91,2,2,2,219, man304.jpg, cue_2.jpg,1,5.9197,3,2,0.8872,2,0.9598,1,4,1.3208
4,1,92,3,0,0,106, man145.jpg, ,3,0.9988,1,4,0.4922,7,0,7,7,0
4,1,93,2,2,2,1, man002.jpg, cue_2.jpg,2,1.2124,1,4,0.7293,2,0.8635,1,4,0.6456
4,1,94,2,4,4,34, man055.jpg, cue_4.jpg,2,1.2154,1,3,0.6668,3,0.6076,1,4,0.6779
4,1,95,3,0,0,199, man275.jpg, ,3,1.5664,1,4,0.762,7,0,7,7,0
4,1,96,1,4,4,133, man178.jpg, cue_4.jpg,2,4.5137,2,2,1.8441,3,1.5996,1,4,0.5465
4,1,97,3,0,0,132, man177.jpg, ,3,1.1207,1,4,0.5292,7,0,7,7,0
4,1,98,2,3,3,56, man082.jpg, cue_3.jpg,1,3.488,3,2,1.1331,4,3.0074,1,4,0.9084
4,1,99,1,3,3,165, man222.jpg, cue_3.jpg,1,2.5576,1,4,0.5618,4,1.2157,1,4,0.6782
4,1,100,3,0,0,186, man252.jpg, ,3,2.6548,1,4,1.0709,7,0,7,7,0
4,1,101,3,0,0,124, man166.jpg, ,3,1.0313,1,4,0.8266,7,0,7,7,0
4,1,102,2,4,4,72, man104.jpg, cue_4.jpg,2,1.9503,1,3,0.6989,3,0.6396,1,3,1.2829
4,1,103,1,4,4,50, man073.jpg, cue_4.jpg,2,1.3144,2,4,0.8259,3,0.5755,1,4,0.6069
4,1,104,2,4,4,22, man036.jpg, cue_4.jpg,1,2.411,3,3,0.6295,2,1.9835,0,2,2.471
4,1,105,3,0,0,150, man199.jpg, ,3,1.4126,1,4,0.6013,7,0,7,7,0
4,1,106,3,0,0,204, man281.jpg, ,3,1.1254,1,4,0.5663,7,0,7,7,0
4,1,107,2,4,4,153, man203.jpg, cue_4.jpg,2,3.5872,1,3,0.6347,3,0.5755,1,3,0.521
4,1,108,1,3,3,123, man165.jpg, cue_3.jpg,3,10.1846,0,2,2.541,7,0,7,7,0
4,1,109,1,2,2,222, man307.jpg, cue_2.jpg,1,2.2799,1,3,0.696,2,0.7677,1,4,0.6176
4,1,110,3,0,0,3, man005.jpg, ,3,1.317,1,4,0.6852,7,0,7,7,0
4,1,111,3,0,0,18, man031.jpg, ,3,1.2216,1,4,0.6259,7,0,7,7,0
4,1,112,3,0,0,88, man122.jpg, ,3,1.3379,1,4,0.5641,7,0,7,7,0
4,1,113,2,1,1,223, man309.jpg, cue_1.jpg,2,1.6972,1,3,0.5701,1,0.5756,1,3,0.5851
4,1,114,1,1,1,136, man182.jpg, cue_1.jpg,2,1.2858,2,3,0.5276,1,0.5755,1,3,0.4797
4,1,115,3,0,0,21, man035.jpg, ,3,1.0247,1,4,0.5334,7,0,7,7,0
4,1,116,3,0,0,125, man167.jpg, ,3,1.0602,1,4,0.5016,7,0,7,7,0
4,1,117,1,3,3,220, man305.jpg, cue_3.jpg,2,3.5917,2,2,2.1605,4,0.8316,1,3,0.8019
4,1,118,2,1,1,218, man303.jpg, cue_1.jpg,2,3.2696,1,4,1.1788,4,7.4556,0,2,1.8887
4,1,119,1,1,1,76, man108.jpg, cue_1.jpg,2,3.8794,2,2,1.2347,1,1.1197,1,3,1.3442
4,1,120,1,1,1,82, man114.jpg, cue_1.jpg,2,2.5248,2,4,3.3773,1,4.1917,1,3,0.6441
4,1,121,3,0,0,118, man160.jpg, ,3,1.374,1,4,0.5959,7,0,7,7,0
4,1,122,2,1,1,209, man289.jpg, cue_1.jpg,2,3.328,1,2,1.2041,2,1.2156,0,4,0.654
4,1,123,3,0,0,236, man329.jpg, ,3,1.0319,1,4,0.6025,7,0,7,7,0
4,1,124,2,4,4,44, man066.jpg, cue_4.jpg,2,1.4806,1,4,0.6663,3,0.5757,1,4,0.5492
4,1,125,1,1,1,161, man213.jpg, cue_1.jpg,2,1.9873,2,4,1.454,1,0.6074,1,4,0.5519
4,1,126,3,0,0,160, man212.jpg, ,3,1.3182,1,4,0.558,7,0,7,7,0
4,1,127,3,0,0,128, man170.jpg, ,3,0.9699,1,4,0.531,7,0,7,7,0
4,1,128,1,3,3,65, man094.jpg, cue_3.jpg,1,2.9459,1,4,1.11,4,0.5753,1,4,0.5237
4,1,129,1,4,4,122, man164.jpg, cue_4.jpg,1,1.7895,1,3,2.0979,3,0.7997,1,4,0.5194
4,1,130,2,1,1,239, man333.jpg, cue_1.jpg,2,1.4151,1,4,0.923,1,0.8952,1,4,0.6866
4,1,131,1,2,2,24, man040.jpg, cue_2.jpg,1,2.1512,1,4,0.699,2,0.64,1,4,0.6117
4,1,132,3,0,0,151, man201.jpg, ,3,0.991,1,4,0.565,7,0,7,7,0
4,1,133,3,0,0,37, man058.jpg, ,3,1.0585,1,4,0.5627,7,0,7,7,0
4,1,134,1,4,4,201, man277.jpg, cue_4.jpg,1,2.2112,1,3,1.3661,2,0.7356,0,3,0.7491
4,1,135,2,1,1,207, man284.jpg, cue_1.jpg,2,1.923,1,3,0.9459,1,0.6075,1,3,0.6074
4,1,136,2,1,1,15, man025.jpg, cue_1.jpg,3,5.4194,0,2,0.696,7,0,7,7,0
4,1,137,3,0,0,53, man077.jpg, ,3,0.9918,1,4,0.5309,7,0,7,7,0
4,1,138,2,4,4,143, man189.jpg, cue_4.jpg,2,1.2528,1,4,0.5277,3,0.5117,1,4,0.515
4,1,139,2,3,3,172, man234.jpg, cue_3.jpg,2,1.8264,1,4,0.5945,4,3.5837,1,3,0.5811
4,1,140,1,2,2,46, man068.jpg, cue_2.jpg,1,1.4418,1,4,0.5625,2,0.9277,1,4,0.4213
4,1,141,2,4,4,177, man241.jpg, cue_4.jpg,2,3.3691,1,2,0.6348,2,6.4315,0,2,0.6103
4,1,142,3,0,0,62, man091.jpg, ,3,2.2368,1,4,0.5274,7,0,7,7,0
4,1,143,2,4,4,89, man123.jpg, cue_4.jpg,2,1.1821,1,4,1.1148,3,0.5754,1,4,0.5147
4,1,144,3,0,0,43, man064.jpg, ,3,1.124,1,4,0.5003,7,0,7,7,0
4,1,145,2,4,4,41, man062.jpg, cue_4.jpg,2,1.0286,1,4,0.5373,3,1.0874,1,4,0.4177
4,1,146,3,0,0,96, man131.jpg, ,3,1.9526,1,4,0.5652,7,0,7,7,0
4,1,147,2,2,2,155, man206.jpg, cue_2.jpg,1,1.3787,3,2,3.1926,2,0.5119,1,4,0.4926
4,1,148,3,0,0,49, man072.jpg, ,3,1.1169,1,4,0.4933,7,0,7,7,0
4,1,149,2,2,2,210, man291.jpg, cue_2.jpg,1,3.1656,3,3,0.7926,2,0.7674,1,4,0.5822
4,1,150,3,0,0,12, man022.jpg, ,3,1.1229,1,4,0.4975,7,0,7,7,0
4,1,151,2,1,1,170, man231.jpg, cue_1.jpg,1,3.0756,3,3,1.2021,1,2.2717,1,4,0.9113
4,1,152,3,0,0,79, man111.jpg, ,3,1.2787,1,4,0.5688,7,0,7,7,0
4,1,153,3,0,0,83, man115.jpg, ,3,6.1183,1,2,0.8214,7,0,7,7,0
4,1,154,2,1,1,126, man168.jpg, cue_1.jpg,2,1.1925,1,4,0.5658,1,0.5756,1,4,0.4531
4,1,155,2,1,1,129, man171.jpg, cue_1.jpg,2,1.2874,1,4,0.4649,1,0.4475,1,4,0.3937
4,1,156,1,4,4,2, man004.jpg, cue_4.jpg,2,4.0601,2,3,1.1393,3,0.6717,1,4,0.5505
4,1,157,3,0,0,81, man113.jpg, ,3,1.283,1,4,0.4621,7,0,7,7,0
4,1,158,1,1,1,154, man205.jpg, cue_1.jpg,1,1.2477,1,4,0.5387,1,0.5114,1,4,0.4624
4,1,159,1,3,3,16, man027.jpg, cue_3.jpg,2,2.9738,2,2,0.5951,4,0.6716,1,4,0.4611
4,1,160,3,0,0,194, man262.jpg, ,3,3.6468,1,2,1.1735,7,0,7,7,0
4,1,161,1,2,2,174, man237.jpg, cue_2.jpg,2,2.8578,2,2,3.1187,2,2.5595,1,2,0.802
4,1,162,1,3,3,11, man019.jpg, cue_3.jpg,1,3.8761,1,4,0.4987,4,1.0554,1,4,0.4162
4,1,163,1,4,4,166, man223.jpg, cue_4.jpg,1,1.3778,1,4,0.5699,3,0.4798,1,4,0.4932
4,1,164,2,3,3,67, man096.jpg, cue_3.jpg,2,1.8061,1,3,0.9139,4,1.8557,1,3,0.525
4,1,165,2,4,4,163, man217.jpg, cue_4.jpg,2,2.1719,1,2,0.4642,3,0.5115,1,3,1.2221
4,1,166,1,2,2,93, man128.jpg, cue_2.jpg,1,1.5124,1,4,0.5367,2,0.4475,1,4,0.4309
4,1,167,1,3,3,71, man102.jpg, cue_3.jpg,1,1.2498,1,4,1.4846,4,5.5038,1,3,0.9987
4,1,168,1,4,4,175, man238.jpg, cue_4.jpg,1,1.4099,1,4,0.5345,3,0.5118,1,4,0.4578
4,1,169,2,1,1,39, man060.jpg, cue_1.jpg,1,4.2835,3,2,0.8555,1,0.4795,1,4,0.4629
4,1,170,1,2,2,149, man198.jpg, cue_2.jpg,2,1.9846,2,2,1.1937,2,1.1835,1,4,0.968
4,1,171,3,0,0,23, man039.jpg, ,3,1.1885,1,4,0.4662,7,0,7,7,0
4,1,172,3,0,0,119, man161.jpg, ,3,1.0574,1,4,0.4704,7,0,7,7,0
4,1,173,3,0,0,214, man298.jpg, ,3,0.9048,1,4,0.4342,7,0,7,7,0
4,1,174,2,3,3,206, man283.jpg, cue_3.jpg,1,1.4134,3,1,1.4339,4,1.439,1,4,1.1201
4,1,175,2,2,2,176, man240.jpg, cue_2.jpg,2,1.5745,1,4,2.58,2,3.4555,1,2,0.8701
4,1,176,3,0,0,212, man296.jpg, ,3,1.1588,1,4,0.4687,7,0,7,7,0
4,1,177,3,0,0,102, man138.jpg, ,3,1.1276,1,4,0.4718,7,0,7,7,0
4,1,178,2,1,1,193, man260.jpg, cue_1.jpg,2,1.3217,1,4,0.7537,1,1.2157,1,3,0.6539
4,1,179,1,2,2,10, man017.jpg, cue_2.jpg,1,1.4485,1,3,0.5389,4,0.5435,0,3,0.5574
4,1,180,3,0,0,140, man186.jpg, ,3,1.1955,1,4,0.5053,7,0,7,7,0
4,1,181,3,0,0,185, man250.jpg, ,3,1.0654,1,4,0.4746,7,0,7,7,0
4,1,182,2,2,2,135, man180.jpg, cue_2.jpg,2,1.5977,1,3,1.7226,2,0.5115,1,3,0.4281
4,1,183,3,0,0,158, man209.jpg, ,3,1.3431,1,4,0.4704,7,0,7,7,0
4,1,184,3,0,0,228, man314.jpg, ,3,0.9362,1,4,0.4644,7,0,7,7,0
4,1,185,1,4,4,109, man150.jpg, cue_4.jpg,1,1.826,1,3,0.533,3,0.8316,1,4,0.491
4,1,186,2,2,2,42, man063.jpg, cue_2.jpg,2,5.7399,1,2,0.7631,2,0.6075,1,2,0.9285
4,1,187,1,1,1,235, man328.jpg, cue_1.jpg,1,2.4932,1,3,0.5655,1,0.8964,1,3,0.5833
4,1,188,3,0,0,184, man249.jpg, ,3,1.156,1,4,0.4965,7,0,7,7,0
4,1,189,3,0,0,108, man149.jpg, ,3,0.9313,1,4,0.5068,7,0,7,7,0
4,1,190,3,0,0,162, man215.jpg, ,3,0.8763,1,4,0.5034,7,0,7,7,0
4,1,191,2,3,3,78, man110.jpg, cue_3.jpg,2,2.4076,1,2,0.5303,4,0.4797,1,4,0.4869
4,1,192,1,2,2,168, man229.jpg, cue_2.jpg,2,2.0558,2,3,0.497,2,0.4795,1,3,0.4531
4,1,193,1,1,1,105, man144.jpg, cue_1.jpg,1,1.4814,1,4,0.4745,1,0.4795,1,4,0.4179
4,1,194,1,1,1,157, man208.jpg, cue_1.jpg,3,4.9336,0,1,0.5025,7,0,7,7,0
4,1,195,3,0,0,169, man230.jpg, ,3,0.9988,1,4,0.4748,7,0,7,7,0
4,1,196,1,4,4,5, man010.jpg, cue_4.jpg,2,2.6839,2,3,1.0506,3,0.4793,1,3,0.46
4,1,197,2,2,2,221, man306.jpg, cue_2.jpg,1,4.7185,3,2,0.7924,2,0.4476,1,3,0.8673
4,1,198,1,2,2,142, man188.jpg, cue_2.jpg,2,1.8919,2,3,0.5004,1,0.9917,0,3,0.4527
4,1,199,1,1,1,198, man273.jpg, cue_1.jpg,2,1.159,2,4,0.438,1,0.4477,1,4,0.4155
4,1,200,1,3,3,32, man052.jpg, cue_3.jpg,1,1.4114,1,4,0.4399,4,0.4795,1,4,0.416
4,1,201,1,3,3,99, man135.jpg, cue_3.jpg,1,4.2279,1,3,0.6261,4,0.4796,1,3,0.4184
4,1,202,3,0,0,229, man315.jpg, ,3,1.0943,1,4,0.504,7,0,7,7,0
4,1,203,2,4,4,6, man013.jpg, cue_4.jpg,2,1.1896,1,4,0.4687,3,0.4476,1,4,0.4948
4,1,204,1,1,1,33, man054.jpg, cue_1.jpg,2,1.6951,2,3,3.0956,1,0.4476,1,3,0.5139
4,1,205,1,3,3,28, man045.jpg, cue_3.jpg,1,1.2494,1,4,0.6029,4,0.4793,1,4,0.4949
4,1,206,2,3,3,231, man321.jpg, cue_3.jpg,1,7.0043,3,2,1.3052,4,0.5755,1,2,0.7774
4,1,207,2,1,1,86, man120.jpg, cue_1.jpg,2,2.8138,1,3,0.5675,1,0.5116,1,3,0.4866
4,1,208,3,0,0,232, man322.jpg, ,3,1.1303,1,4,0.4428,7,0,7,7,0
4,1,209,3,0,0,63, man092.jpg, ,3,0.7972,1,4,0.443,7,0,7,7,0
4,1,210,2,3,3,31, man050.jpg, cue_3.jpg,2,5.2139,1,2,1.1069,1,3.7118,0,2,0.8399
4,1,211,1,4,4,134, man179.jpg, cue_4.jpg,3,2.9862,0,3,1.1642,7,0,7,7,0
4,1,212,3,0,0,145, man191.jpg, ,3,1.0566,1,4,0.4998,7,0,7,7,0
4,1,213,2,2,2,94, man129.jpg, cue_2.jpg,2,3.364,1,2,1.942,2,0.4793,1,3,0.7679
4,1,214,3,0,0,179, man244.jpg, ,3,1.2209,1,4,0.4972,7,0,7,7,0
4,1,215,3,0,0,225, man311.jpg, ,3,0.8644,1,4,0.3964,7,0,7,7,0
4,1,216,2,1,1,233, man326.jpg, cue_1.jpg,2,1.6008,1,4,0.6211,1,0.9915,1,4,0.7764
4,1,217,3,0,0,40, man061.jpg, ,3,1.0208,1,4,0.4015,7,0,7,7,0
4,1,218,2,2,2,110, man152.jpg, cue_2.jpg,2,0.9978,1,4,0.4749,2,0.4477,1,4,0.4201
4,1,219,1,2,2,13, man023.jpg, cue_2.jpg,2,1.3519,2,3,1.646,2,0.4476,1,3,0.4216
4,1,220,1,3,3,139, man185.jpg, cue_3.jpg,1,1.9294,1,4,0.5042,4,0.5437,1,4,0.4577
4,1,221,1,1,1,107, man147.jpg, cue_1.jpg,1,1.2771,1,4,0.5352,1,0.4797,1,4,0.4599
4,1,222,3,0,0,57, man084.jpg, ,3,1.0215,1,4,0.5301,7,0,7,7,0
4,1,223,2,3,3,60, man088.jpg, cue_3.jpg,2,4.673,1,2,0.8444,4,3.8394,1,2,0.7111
4,1,224,2,2,2,230, man316.jpg, cue_2.jpg,2,2.8629,1,4,4.9176,2,0.5434,1,4,0.4803
4,1,225,2,3,3,87, man121.jpg, cue_3.jpg,2,1.2801,1,4,0.6034,4,6.1437,1,2,1.5353
4,1,226,1,3,3,197, man271.jpg, cue_3.jpg,1,3.8442,1,3,1.7456,4,7.2637,1,2,0.9999
4,1,227,3,0,0,213, man297.jpg, ,3,1.6351,1,4,0.4618,7,0,7,7,0
4,1,228,1,4,4,227, man313.jpg, cue_4.jpg,1,5.0543,1,2,1.5635,2,0.5117,0,2,0.4181
4,1,229,1,4,4,200, man276.jpg, cue_4.jpg,2,4.9991,2,3,1.397,3,0.7355,1,3,0.6189
4,1,230,3,0,0,152, man202.jpg, ,3,1.0302,1,4,0.4105,7,0,7,7,0
4,1,231,1,2,2,208, man287.jpg, cue_2.jpg,1,1.6627,1,2,0.6647,2,1.1837,1,4,0.5864
4,1,232,2,2,2,226, man312.jpg, cue_2.jpg,1,1.4791,3,4,0.8249,2,0.5758,1,4,0.491
4,1,233,1,2,2,146, man193.jpg, cue_2.jpg,2,3.8377,2,2,1.4346,1,0.6395,0,2,0.7064
4,1,234,3,0,0,51, man075.jpg, ,3,0.9877,1,4,0.4978,7,0,7,7,0
4,1,235,2,4,4,191, man258.jpg, cue_4.jpg,2,2.594,1,2,0.8499,4,0.8954,0,1,1.8028
4,1,236,1,1,1,75, man107.jpg, cue_1.jpg,1,2.5003,1,4,0.5385,1,0.5114,1,4,0.462
4,1,237,3,0,0,90, man124.jpg, ,3,1.1202,1,3,0.4968,7,0,7,7,0
4,1,238,3,0,0,103, man139.jpg, ,3,1.1211,1,4,0.4975,7,0,7,7,0
4,1,239,2,4,4,52, man076.jpg, cue_4.jpg,1,1.5044,3,4,0.4662,3,0.4798,1,4,0.3934
4,1,240,3,0,0,117, man159.jpg, ,3,0.894,1,4,0.4402,7,0,7,7,0
5,1,1,3,0,0,143, man189.jpg, ,3,1.8291,1,4,0.9841,7,0,7,7,0
5,1,2,2,4,4,39, man060.jpg, cue_4.jpg,2,1.6365,1,4,0.751,2,1.4075,1,4,0.6752
5,1,3,1,3,2,191, man258.jpg, cue_3.jpg,1,2.8759,1,4,0.7868,4,0.8316,1,4,0.7807
5,1,4,3,0,0,81, man113.jpg, ,3,1.5387,1,4,0.8176,7,0,7,7,0
5,1,5,2,4,4,207, man284.jpg, cue_4.jpg,2,1.9565,1,4,0.8802,2,0.7987,1,4,0.9065
5,1,6,1,3,2,124, man166.jpg, cue_3.jpg,1,2.4572,1,4,1.01,4,1.5995,1,4,0.4832
5,1,7,2,1,3,10, man017.jpg, cue_1.jpg,2,1.3482,1,4,0.6989,2,1.2794,0,1,3.2396
5,1,8,2,2,1,3, man005.jpg, cue_2.jpg,2,1.6691,1,4,0.6225,1,1.5034,1,4,0.9309
5,1,9,3,0,0,172, man234.jpg, ,3,1.1541,1,4,0.8813,7,0,7,7,0
5,1,10,3,0,0,60, man088.jpg, ,3,1.8575,1,4,0.6252,7,0,7,7,0
5,1,11,1,1,3,83, man115.jpg, cue_1.jpg,1,2.782,1,4,0.5689,3,0.7036,1,4,0.5783
5,1,12,3,0,0,135, man180.jpg, ,3,1.2775,1,4,0.4731,7,0,7,7,0
5,1,13,1,1,3,7, man014.jpg, cue_1.jpg,1,2.283,1,4,1.0181,3,0.7675,1,4,0.7814
5,1,14,1,2,1,90, man124.jpg, cue_2.jpg,1,2.4678,1,4,0.763,1,1.9845,1,4,0.5493
5,1,15,1,3,2,34, man055.jpg, cue_3.jpg,1,2.0222,1,4,0.5611,4,0.4479,1,4,0.2935
5,1,16,3,0,0,127, man169.jpg, ,3,1.0862,1,4,0.269,7,0,7,7,0
5,1,17,1,1,3,152, man202.jpg, cue_1.jpg,1,2.4421,1,4,1.1713,3,0.9916,1,4,0.6157
5,1,18,3,0,0,99, man135.jpg, ,3,1.0236,1,4,0.2156,7,0,7,7,0
5,1,19,2,3,2,71, man102.jpg, cue_3.jpg,2,2.6601,1,4,0.7236,4,0.7039,1,4,0.3589
5,1,20,1,4,4,93, man128.jpg, cue_4.jpg,1,3.4528,1,3,1.2101,2,1.1194,1,4,0.5214
5,1,21,2,2,1,212, man296.jpg, cue_2.jpg,2,1.385,1,4,0.5263,1,0.4484,1,4,0.42
5,1,22,2,2,1,142, man188.jpg, cue_2.jpg,1,1.6718,3,4,0.4013,1,0.3834,1,4,0.3982
5,1,23,2,1,3,53, man077.jpg, cue_1.jpg,2,1.4442,1,4,0.7914,3,0.4158,1,4,0.356
5,1,24,1,3,2,158, man209.jpg, cue_3.jpg,1,2.9221,1,3,0.623,4,2.4636,1,4,0.3647
5,1,25,2,4,4,175, man238.jpg, cue_4.jpg,2,1.7306,1,4,0.4738,2,1.5999,1,4,0.4177
5,1,26,3,0,0,82, man114.jpg, ,3,1.0614,1,4,0.2488,7,0,7,7,0
5,1,27,2,3,2,136, man182.jpg, cue_3.jpg,2,2.1155,1,4,0.6667,4,0.416,1,4,0.2365
5,1,28,2,3,2,203, man279.jpg, cue_3.jpg,1,1.0958,3,4,0.3457,4,0.3517,1,4,0.2035
5,1,29,3,0,0,187, man253.jpg, ,3,1.3204,1,4,0.2405,7,0,7,7,0
5,1,30,2,2,1,12, man022.jpg, cue_2.jpg,2,1.2283,1,4,0.5042,1,0.608,1,4,0.4569
5,1,31,1,2,1,232, man322.jpg, cue_2.jpg,1,1.8673,1,3,1.371,1,0.6395,1,4,1.0953
5,1,32,3,0,0,67, man096.jpg, ,3,2.0783,1,4,0.5642,7,0,7,7,0
5,1,33,2,3,2,78, man110.jpg, cue_3.jpg,2,2.3405,1,4,0.8497,4,0.4479,1,4,0.2666
5,1,34,1,3,2,157, man208.jpg, cue_3.jpg,1,1.4127,1,4,0.441,4,0.5119,1,4,0.192
5,1,35,1,4,4,46, man068.jpg, cue_4.jpg,1,3.0688,1,3,2.8754,4,3.7116,0,2,0.7749
5,1,36,1,1,3,8, man015.jpg, cue_1.jpg,3,1.9937,0,4,0.344,7,0,7,7,0
5,1,37,2,1,3,79, man111.jpg, cue_1.jpg,1,2.2706,3,4,1.3906,3,0.4477,1,4,0.2872
5,1,38,1,2,1,146, man193.jpg, cue_2.jpg,1,2.9216,1,4,1.3583,1,0.3524,1,4,0.3257
5,1,39,2,3,2,57, man084.jpg, cue_3.jpg,1,2.8769,3,3,0.948,4,0.5753,1,4,0.2588
5,1,40,2,3,2,75, man107.jpg, cue_3.jpg,1,2.7487,3,4,0.6654,4,0.3839,1,4,0.2368
5,1,41,2,1,3,94, man129.jpg, cue_1.jpg,2,1.5261,1,4,0.4697,3,0.4155,1,4,0.4152
5,1,42,1,1,3,201, man277.jpg, cue_1.jpg,1,1.9872,1,4,0.527,3,0.4159,1,4,0.2945
5,1,43,1,3,2,24, man040.jpg, cue_3.jpg,1,1.1832,1,4,0.3007,4,0.2875,1,4,0.2237
5,1,44,2,4,4,72, man104.jpg, cue_4.jpg,2,2.3663,1,4,1.019,2,0.5115,1,4,0.362
5,1,45,1,3,2,174, man237.jpg, cue_3.jpg,1,5.2159,1,3,2.1007,4,2.0479,1,3,1.7341
5,1,46,1,1,3,66, man095.jpg, cue_1.jpg,2,5.1864,2,1,1.3688,4,1.151,0,2,2.6386
5,1,47,1,1,3,112, man154.jpg, cue_1.jpg,1,5.797,1,4,0.4634,4,2.5281,0,3,0.8026
5,1,48,3,0,0,134, man179.jpg, ,3,2.4065,1,4,0.2712,7,0,7,7,0
5,1,49,1,1,3,104, man141.jpg, cue_1.jpg,1,1.3384,1,4,0.4339,3,0.5753,1,4,0.2622
5,1,50,3,0,0,185, man250.jpg, ,3,3.9044,1,3,2.4591,7,0,7,7,0
5,1,51,1,3,2,161, man213.jpg, cue_3.jpg,1,1.9951,1,4,0.6931,4,0.6077,1,4,0.2869
5,1,52,3,0,0,178, man242.jpg, ,3,5.0003,1,2,0.5655,7,0,7,7,0
5,1,53,2,4,4,61, man089.jpg, cue_4.jpg,2,1.7641,1,4,0.6337,2,1.5682,1,4,0.3647
5,1,54,2,4,4,29, man047.jpg, cue_4.jpg,2,1.8905,1,4,0.4028,2,0.5122,1,4,0.3318
5,1,55,1,1,3,121, man163.jpg, cue_1.jpg,1,2.8507,1,4,0.6034,3,0.9277,1,4,0.3301
5,1,56,3,0,0,48, man071.jpg, ,3,2.6573,1,3,0.7535,7,0,7,7,0
5,1,57,1,3,2,225, man311.jpg, cue_3.jpg,1,2.9511,1,4,0.8585,4,3.3277,1,4,0.3302
5,1,58,3,0,0,144, man190.jpg, ,3,3.8104,1,2,0.4019,7,0,7,7,0
5,1,59,2,1,3,96, man131.jpg, cue_1.jpg,1,1.8922,3,4,0.9509,3,0.4796,1,4,0.3941
5,1,60,2,3,2,59, man086.jpg, cue_3.jpg,2,3.2624,1,4,0.437,4,0.3197,1,4,0.2281
5,1,61,2,3,2,65, man094.jpg, cue_3.jpg,1,1.1837,3,4,0.3016,4,0.2881,1,4,0.1956
5,1,62,3,0,0,97, man133.jpg, ,3,1.0248,1,4,0.21,7,0,7,7,0
5,1,63,3,0,0,153, man203.jpg, ,3,1.0253,1,4,0.246,7,0,7,7,0
5,1,64,1,2,1,13, man023.jpg, cue_2.jpg,1,2.5289,1,4,0.4383,1,0.3202,1,4,0.2933
5,1,65,3,0,0,170, man231.jpg, ,3,0.9902,1,4,0.1802,7,0,7,7,0
5,1,66,3,0,0,6, man013.jpg, ,3,1.1217,1,4,0.2421,7,0,7,7,0
5,1,67,3,0,0,16, man027.jpg, ,3,0.9736,1,4,0.1804,7,0,7,7,0
5,1,68,1,4,4,23, man039.jpg, cue_4.jpg,1,2.7207,1,4,0.4952,2,0.4165,1,4,0.264
5,1,69,1,4,4,177, man241.jpg, cue_4.jpg,1,1.3139,1,4,0.379,2,0.3516,1,4,0.2978
5,1,70,1,4,4,239, man333.jpg, cue_4.jpg,1,1.3161,1,4,0.2507,2,0.3523,1,4,0.2263
5,1,71,3,0,0,209, man289.jpg, ,3,1.5334,1,3,0.6527,7,0,7,7,0
5,1,72,2,2,1,63, man092.jpg, cue_2.jpg,2,1.6066,1,4,0.4987,1,0.2561,1,4,0.2579
5,1,73,3,0,0,120, man162.jpg, ,3,1.0366,1,4,0.1768,7,0,7,7,0
5,1,74,3,0,0,119, man161.jpg, ,3,1.4063,1,4,0.3068,7,0,7,7,0
5,1,75,2,1,3,200, man276.jpg, cue_1.jpg,1,1.3554,3,4,0.274,3,0.864,1,4,0.193
5,1,76,3,0,0,229, man315.jpg, ,3,1.95,1,4,0.1228,7,0,7,7,0
5,1,77,1,2,1,149, man198.jpg, cue_2.jpg,1,2.8604,1,3,0.8841,1,0.8318,1,4,0.5231
5,1,78,1,2,1,114, man156.jpg, cue_2.jpg,1,1.1308,1,4,0.2823,1,0.3197,1,4,0.2887
5,1,79,3,0,0,98, man134.jpg, ,3,0.8422,1,4,0.1184,7,0,7,7,0
5,1,80,1,3,2,160, man212.jpg, cue_3.jpg,1,1.6388,1,4,0.5926,4,0.6075,1,4,0.2065
5,1,81,1,4,4,36, man057.jpg, cue_4.jpg,1,1.6753,1,4,0.5009,2,1.1514,1,4,0.3667
5,1,82,2,3,2,220, man305.jpg, cue_3.jpg,1,1.1559,3,4,0.2436,4,0.3518,1,4,0.3298
5,1,83,2,4,4,56, man082.jpg, cue_4.jpg,2,1.313,1,4,0.3136,2,0.7678,1,4,0.2676
5,1,84,3,0,0,224, man310.jpg, ,3,1.188,1,4,0.7552,7,0,7,7,0
5,1,85,2,2,1,128, man170.jpg, cue_2.jpg,1,1.673,3,4,0.4664,1,0.2879,1,4,0.2574
5,1,86,3,0,0,188, man254.jpg, ,3,1.0979,1,4,0.1415,7,0,7,7,0
5,1,87,2,4,4,206, man283.jpg, cue_4.jpg,2,1.3723,1,4,0.3064,2,0.3516,1,4,0.3258
5,1,88,2,3,2,230, man316.jpg, cue_3.jpg,2,2.3008,1,4,0.1872,4,0.832,1,4,0.1922
5,1,89,2,3,2,19, man032.jpg, cue_3.jpg,2,1.2771,1,4,0.2472,4,0.256,1,4,0.5129
5,1,90,1,1,3,91, man125.jpg, cue_1.jpg,1,2.1766,1,4,0.4044,3,0.4797,1,4,0.3032
5,1,91,3,0,0,62, man091.jpg, ,1,2.8877,0,3,0.6858,2,0.6719,0,3,0.4513
5,1,92,2,1,3,102, man138.jpg, cue_1.jpg,2,2.7583,1,4,0.4661,3,0.3835,1,4,0.3338
5,1,93,2,4,4,237, man330.jpg, cue_4.jpg,2,1.443,1,4,0.2158,2,0.3201,1,4,0.2243
5,1,94,2,2,1,76, man108.jpg, cue_2.jpg,2,1.9003,1,4,0.3154,1,0.2875,1,4,0.2263
5,1,95,1,3,2,14, man024.jpg, cue_3.jpg,1,2.3312,1,4,0.3159,4,0.2555,1,4,0.1945
5,1,96,1,1,3,11, man019.jpg, cue_1.jpg,1,1.8554,1,4,0.561,3,0.4154,1,4,0.2921
5,1,97,1,1,3,150, man199.jpg, cue_1.jpg,1,1.5356,1,4,0.2386,3,0.3197,1,4,0.23
5,1,98,2,3,2,163, man217.jpg, cue_3.jpg,2,4.6737,1,4,1.3891,4,0.3197,1,4,0.1964
5,1,99,2,2,1,129, man171.jpg, cue_2.jpg,2,1.281,1,4,0.2181,1,0.288,1,4,0.2899
5,1,100,2,2,1,50, man073.jpg, cue_2.jpg,1,1.0216,3,4,0.1783,1,0.2556,1,4,0.2711
5,1,101,3,0,0,204, man281.jpg, ,3,1.8652,1,2,0.8582,7,0,7,7,0
5,1,102,2,2,1,194, man262.jpg, cue_2.jpg,1,1.7405,3,4,0.4671,1,0.2877,1,4,0.2904
5,1,103,1,3,2,22, man036.jpg, cue_3.jpg,1,4.0588,1,4,1.3919,4,5.6958,1,2,0.6139
5,1,104,2,4,4,35, man056.jpg, cue_4.jpg,2,1.7292,1,4,0.2806,2,0.6398,1,4,0.2246
5,1,105,3,0,0,223, man309.jpg, ,3,1.3247,1,4,0.0848,7,0,7,7,0
5,1,106,1,2,1,86, man120.jpg, cue_2.jpg,1,2.2147,1,4,0.3776,1,1.2158,1,4,0.3257
5,1,107,3,0,0,117, man159.jpg, ,3,0.8777,1,4,0.1527,7,0,7,7,0
5,1,108,3,0,0,28, man045.jpg, ,3,0.7433,1,4,0.1521,7,0,7,7,0
5,1,109,2,3,2,54, man078.jpg, cue_3.jpg,2,1.3831,1,4,0.283,4,0.2241,1,4,0.1666
5,1,110,1,1,3,181, man246.jpg, cue_1.jpg,1,3.2664,1,4,0.3153,3,0.5754,1,4,0.5174
5,1,111,3,0,0,20, man034.jpg, ,3,1.1887,1,4,0.2103,7,0,7,7,0
5,1,112,1,3,2,234, man327.jpg, cue_3.jpg,1,1.2466,1,4,0.1862,4,0.2878,1,4,0.1973
5,1,113,3,0,0,196, man268.jpg, ,3,0.9301,1,4,0.1547,7,0,7,7,0
5,1,114,1,2,1,4, man007.jpg, cue_2.jpg,1,1.8661,1,4,0.3788,1,0.2875,1,4,0.2388
5,1,115,3,0,0,69, man100.jpg, ,3,0.9702,1,4,0.1451,7,0,7,7,0
5,1,116,1,2,1,15, man025.jpg, cue_2.jpg,1,1.1522,1,4,0.207,1,0.3202,1,4,0.264
5,1,117,3,0,0,192, man259.jpg, ,3,0.834,1,4,0.1109,7,0,7,7,0
5,1,118,2,2,1,213, man297.jpg, cue_2.jpg,2,1.3107,1,4,0.6316,1,0.2559,1,4,0.2571
5,1,119,1,1,3,77, man109.jpg, cue_1.jpg,1,3.6598,1,4,0.6578,3,0.6718,1,4,0.2652
5,1,120,2,3,2,137, man183.jpg, cue_3.jpg,1,2.7235,3,3,1.6799,4,0.672,1,4,0.5252
5,1,121,3,0,0,38, man059.jpg, ,3,0.8446,1,4,0.1212,7,0,7,7,0
5,1,122,1,2,1,138, man184.jpg, cue_2.jpg,1,3.7533,1,4,1.2108,1,2.1759,1,2,0.621
5,1,123,3,0,0,116, man158.jpg, ,3,0.7764,1,4,0.1197,7,0,7,7,0
5,1,124,1,3,2,140, man186.jpg, cue_3.jpg,1,1.4802,1,4,0.2816,4,0.2242,1,4,0.1954
5,1,125,3,0,0,89, man123.jpg, ,3,0.8324,1,4,0.1388,7,0,7,7,0
5,1,126,3,0,0,199, man275.jpg, ,3,0.7956,1,4,0.1224,7,0,7,7,0
5,1,127,2,3,2,92, man126.jpg, cue_3.jpg,1,3.0185,3,4,0.3147,4,0.2236,1,4,0.1959
5,1,128,1,2,1,171, man233.jpg, cue_2.jpg,1,2.7528,1,4,0.3144,1,0.8,1,4,0.3339
5,1,129,1,4,4,179, man244.jpg, cue_4.jpg,1,1.7651,1,4,0.5061,2,0.4162,1,4,0.2592
5,1,130,3,0,0,41, man062.jpg, ,3,0.8291,1,4,0.1224,7,0,7,7,0
5,1,131,2,2,1,169, man230.jpg, cue_2.jpg,2,1.2266,1,4,0.5346,1,0.8641,1,4,0.2017
5,1,132,1,1,3,21, man035.jpg, cue_1.jpg,1,1.192,1,4,0.2778,3,0.416,1,4,0.1679
5,1,133,1,2,1,32, man052.jpg, cue_2.jpg,1,1.3501,1,4,0.3005,1,0.2882,1,4,0.1626
5,1,134,3,0,0,122, man164.jpg, ,3,1.4732,1,4,0.723,7,0,7,7,0
5,1,135,3,0,0,18, man031.jpg, ,3,0.842,1,4,0.1822,7,0,7,7,0
5,1,136,3,0,0,17, man029.jpg, ,3,0.7401,1,4,0.1162,7,0,7,7,0
5,1,137,1,4,4,74, man106.jpg, cue_4.jpg,1,1.6685,1,4,0.1741,2,0.4158,1,4,0.2603
5,1,138,1,4,4,64, man093.jpg, cue_4.jpg,1,3.1662,1,4,0.1854,2,0.2877,1,4,0.2284
5,1,139,2,2,1,155, man206.jpg, cue_2.jpg,2,2.7196,1,4,0.2371,1,0.5439,1,4,0.2994
5,1,140,1,1,3,228, man314.jpg, cue_1.jpg,1,3.0122,1,4,0.4694,2,0.7996,0,4,0.2549
5,1,141,3,0,0,215, man299.jpg, ,3,0.81,1,4,0.1194,7,0,7,7,0
5,1,142,2,2,1,193, man260.jpg, cue_2.jpg,2,1.222,1,4,0.2121,1,0.2242,1,4,0.1604
5,1,143,1,4,4,173, man236.jpg, cue_4.jpg,1,0.9907,1,4,0.2768,2,0.3516,1,4,0.3295
5,1,144,1,3,2,103, man139.jpg, cue_3.jpg,1,3.6808,1,4,0.3741,4,0.4159,1,4,1.124
5,1,145,1,4,4,189, man255.jpg, cue_4.jpg,1,4.0741,1,4,0.7508,2,1.6318,1,4,0.2661
5,1,146,3,0,0,110, man152.jpg, ,3,1.2522,1,4,0.109,7,0,7,7,0
5,1,147,3,0,0,182, man247.jpg, ,3,0.7676,1,4,0.0785,7,0,7,7,0
5,1,148,3,0,0,101, man137.jpg, ,3,0.9921,1,4,0.1502,7,0,7,7,0
5,1,149,2,3,2,202, man278.jpg, cue_3.jpg,2,1.5734,1,4,0.272,4,0.2239,1,4,0.1714
5,1,150,2,1,3,26, man042.jpg, cue_1.jpg,1,2.0914,3,4,1.1714,3,0.4473,1,4,0.2386
5,1,151,3,0,0,87, man121.jpg, ,3,0.778,1,4,0.1215,7,0,7,7,0
5,1,152,2,4,4,107, man147.jpg, cue_4.jpg,2,2.5376,1,4,0.6865,2,0.3839,1,4,0.2242
5,1,153,1,3,2,183, man248.jpg, cue_3.jpg,2,4.6677,2,2,2.1677,2,2.3034,0,2,0.8119
5,1,154,3,0,0,109, man150.jpg, ,3,1.5666,1,2,0.5701,7,0,7,7,0
5,1,155,3,0,0,125, man167.jpg, ,3,1.9302,1,4,0.1214,7,0,7,7,0
5,1,156,2,1,3,141, man187.jpg, cue_1.jpg,2,2.3455,1,4,0.535,3,0.3513,1,4,0.1603
5,1,157,3,0,0,100, man136.jpg, ,3,0.9906,1,4,1.6827,7,0,7,7,0
5,1,158,1,2,1,80, man112.jpg, cue_2.jpg,2,1.7313,2,4,1.1467,1,1.0557,1,4,0.2665
5,1,159,2,1,3,70, man101.jpg, cue_1.jpg,1,1.3517,3,4,0.2382,3,0.3524,1,4,0.1963
5,1,160,2,2,1,95, man130.jpg, cue_2.jpg,2,0.9931,1,4,0.2472,1,0.3521,1,4,0.1731
5,1,161,3,0,0,139, man185.jpg, ,3,2.0722,1,2,0.7555,7,0,7,7,0
5,1,162,3,0,0,205, man282.jpg, ,3,2.6011,1,3,0.2508,7,0,7,7,0
5,1,163,3,0,0,30, man048.jpg, ,3,2.0227,1,2,0.9454,7,0,7,7,0
5,1,164,3,0,0,113, man155.jpg, ,3,1.3429,1,4,0.1502,7,0,7,7,0
5,1,165,2,4,4,180, man245.jpg, cue_4.jpg,2,1.2506,1,4,0.2399,2,0.48,1,4,0.2244
5,1,166,2,3,2,226, man312.jpg, cue_3.jpg,2,1.0687,1,4,0.2713,4,0.3836,1,4,0.1625
5,1,167,1,4,4,131, man174.jpg, cue_4.jpg,1,1.3768,1,4,0.2451,2,0.7037,1,4,0.6219
5,1,168,1,1,3,233, man326.jpg, cue_1.jpg,1,1.8335,1,4,0.3142,3,0.3194,1,4,0.1925
5,1,169,3,0,0,221, man306.jpg, ,3,1.0533,1,4,0.2396,7,0,7,7,0
5,1,170,3,0,0,25, man041.jpg, ,3,0.7801,1,4,0.1229,7,0,7,7,0
5,1,171,1,3,2,115, man157.jpg, cue_3.jpg,2,1.8191,2,4,0.3659,4,0.2562,1,4,0.1946
5,1,172,3,0,0,151, man201.jpg, ,3,4.6378,1,2,0.3153,7,0,7,7,0
5,1,173,3,0,0,1, man002.jpg, ,3,0.8371,1,4,0.3349,7,0,7,7,0
5,1,174,3,0,0,44, man066.jpg, ,1,4.4565,0,4,1.0692,1,7.2317,0,2,0.9894
5,1,175,2,2,1,218, man303.jpg, cue_2.jpg,1,1.6271,3,4,0.5987,1,0.3836,1,4,0.2684
5,1,176,3,0,0,145, man191.jpg, ,3,0.9027,1,4,0.208,7,0,7,7,0
5,1,177,3,0,0,118, man160.jpg, ,3,0.8772,1,4,0.0883,7,0,7,7,0
5,1,178,1,3,2,51, man075.jpg, cue_3.jpg,2,2.2819,2,4,1.9459,4,0.2879,1,4,0.2322
5,1,179,1,4,4,162, man215.jpg, cue_4.jpg,1,3.5588,1,4,0.3692,3,2.4315,0,4,1.0342
5,1,180,1,1,3,133, man178.jpg, cue_1.jpg,1,4.6126,1,4,2.9611,3,1.7279,1,4,0.3015
5,1,181,1,4,4,186, man252.jpg, cue_4.jpg,1,1.3184,1,4,0.2685,3,0.3835,0,4,0.2895
5,1,182,3,0,0,108, man149.jpg, ,3,2.8588,1,4,0.2426,7,0,7,7,0
5,1,183,2,1,3,105, man144.jpg, cue_1.jpg,2,1.3412,1,4,0.2437,3,0.2558,1,4,0.1752
5,1,184,2,4,4,156, man207.jpg, cue_4.jpg,2,2.0933,1,4,0.7254,2,0.2875,1,4,0.1697
5,1,185,1,4,4,154, man205.jpg, cue_4.jpg,2,1.832,2,4,0.539,2,0.4158,1,4,0.2578
5,1,186,2,4,4,198, man273.jpg, cue_4.jpg,2,0.9726,1,4,0.2755,2,0.2557,1,4,0.2043
5,1,187,2,1,3,148, man197.jpg, cue_1.jpg,2,1.1612,1,4,0.8224,3,0.2558,1,4,0.1701
5,1,188,3,0,0,111, man153.jpg, ,2,5.1922,0,1,2.125,3,1.0554,0,2,0.9996
5,1,189,2,2,1,68, man099.jpg, cue_2.jpg,2,1.7948,1,4,0.3418,1,0.2881,1,4,0.2041
5,1,190,1,2,1,168, man229.jpg, cue_2.jpg,1,1.4489,1,4,0.474,1,0.256,1,4,0.1726
5,1,191,2,3,2,73, man105.jpg, cue_3.jpg,3,4.4586,0,1,0.9753,7,0,7,7,0
5,1,192,2,1,3,166, man223.jpg, cue_1.jpg,2,1.7718,1,4,0.9102,3,0.7998,1,4,0.2002
5,1,193,2,4,4,37, man058.jpg, cue_4.jpg,1,1.1248,3,4,0.3416,2,0.3194,1,4,0.2011
5,1,194,1,4,4,43, man064.jpg, cue_4.jpg,1,1.9257,1,4,0.6274,2,0.3838,1,4,0.2013
5,1,195,2,4,4,240, man336.jpg, cue_4.jpg,2,4.2942,1,4,0.3344,2,0.4155,1,4,0.1281
5,1,196,2,3,2,33, man054.jpg, cue_3.jpg,1,1.2803,3,4,0.2504,4,0.352,1,4,0.1598
5,1,197,3,0,0,167, man228.jpg, ,3,1.3421,1,4,0.1172,7,0,7,7,0
5,1,198,2,4,4,55, man079.jpg, cue_4.jpg,2,1.892,1,4,0.2782,2,0.3197,1,4,0.2361
5,1,199,3,0,0,84, man117.jpg, ,3,1.4477,1,4,0.155,7,0,7,7,0
5,1,200,3,0,0,176, man240.jpg, ,3,0.8418,1,4,0.1483,7,0,7,7,0
5,1,201,1,2,1,159, man210.jpg, cue_2.jpg,1,1.0612,1,4,0.3442,1,0.2559,1,4,0.1424
5,1,202,2,2,1,164, man221.jpg, cue_2.jpg,2,2.3333,1,4,0.283,1,0.3516,1,4,0.5263
5,1,203,3,0,0,217, man302.jpg, ,3,0.9911,1,4,0.1492,7,0,7,7,0
5,1,204,1,2,1,52, man076.jpg, cue_2.jpg,1,1.1242,1,4,0.2125,1,0.2557,1,4,0.1275
5,1,205,1,4,4,85, man118.jpg, cue_4.jpg,1,2.3672,1,4,0.2834,2,0.4163,1,4,0.2377
5,1,206,2,2,1,222, man307.jpg, cue_2.jpg,2,1.1614,1,4,0.2163,1,0.2554,1,4,0.0992
5,1,207,1,2,1,216, man301.jpg, cue_2.jpg,1,1.9564,1,4,0.9139,1,0.3842,1,4,0.1705
5,1,208,3,0,0,210, man291.jpg, ,3,1.001,1,4,0.1421,7,0,7,7,0
5,1,209,2,1,3,238, man332.jpg, cue_1.jpg,2,1.117,1,4,0.2345,3,1.3118,1,4,0.2679
5,1,210,1,2,1,132, man177.jpg, cue_2.jpg,2,6.1178,2,3,1.4288,2,6.3682,0,2,1.0056
5,1,211,2,1,3,130, man172.jpg, cue_1.jpg,1,2.0245,3,4,0.2753,3,0.3196,1,4,0.1676
5,1,212,3,0,0,231, man321.jpg, ,3,1.3519,1,4,0.2064,7,0,7,7,0
5,1,213,2,2,1,106, man145.jpg, cue_2.jpg,2,1.6112,1,4,0.2154,1,0.1922,1,4,0.1331
5,1,214,1,4,4,236, man329.jpg, cue_4.jpg,2,3.0426,2,4,2.0688,2,0.3518,1,4,0.2385
5,1,215,1,4,4,58, man085.jpg, cue_4.jpg,1,1.3538,1,4,0.2405,2,0.3838,1,4,0.1977
5,1,216,3,0,0,31, man050.jpg, ,3,2.1463,1,3,0.2482,7,0,7,7,0
5,1,217,1,2,1,47, man070.jpg, cue_2.jpg,1,1.5709,1,4,0.2074,1,0.2242,1,4,0.1417
5,1,218,2,1,3,197, man271.jpg, cue_1.jpg,2,1.2126,1,4,0.1854,3,0.32,1,4,0.1311
5,1,219,1,3,2,147, man196.jpg, cue_3.jpg,1,2.3067,1,4,2.8955,3,4.4799,0,3,0.2985
5,1,220,2,4,4,190, man257.jpg, cue_4.jpg,1,3.716,3,4,0.376,2,0.4798,1,3,2.3069
5,1,221,1,1,3,5, man010.jpg, cue_1.jpg,1,2.6315,1,4,0.2171,3,0.4478,1,4,0.3963
5,1,222,3,0,0,214, man298.jpg, ,2,0.8311,0,4,0.2052,4,4.1281,0,1,0.1665
5,1,223,3,0,0,208, man287.jpg, ,3,0.9328,1,4,0.1714,7,0,7,7,0
5,1,224,2,4,4,88, man122.jpg, cue_4.jpg,2,1.4834,1,4,0.5563,2,0.6082,1,4,0.2666
5,1,225,1,3,2,49, man072.jpg, cue_3.jpg,1,1.3805,1,4,0.2187,4,0.5437,1,4,0.2006
5,1,226,3,0,0,45, man067.jpg, ,3,0.8065,1,4,0.2123,7,0,7,7,0
5,1,227,3,0,0,123, man165.jpg, ,3,1.0245,1,4,0.1493,7,0,7,7,0
5,1,228,2,4,4,235, man328.jpg, cue_4.jpg,2,1.1881,1,4,0.1758,2,0.2878,1,4,0.2045
5,1,229,3,0,0,184, man249.jpg, ,3,1.0343,1,4,0.1424,7,0,7,7,0
5,1,230,3,0,0,40, man061.jpg, ,3,0.7013,1,4,0.1431,7,0,7,7,0
5,1,231,2,1,3,219, man304.jpg, cue_1.jpg,1,1.6622,3,4,0.279,3,0.2234,1,4,0.162
5,1,232,3,0,0,126, man168.jpg, ,3,0.7682,1,4,0.1432,7,0,7,7,0
5,1,233,2,1,3,165, man222.jpg, cue_1.jpg,2,1.1503,1,4,0.2053,3,0.2556,1,4,0.3931
5,1,234,2,1,3,195, man267.jpg, cue_1.jpg,2,1.0183,1,4,0.178,3,0.2237,1,4,0.1598
5,1,235,3,0,0,9, man016.jpg, ,3,0.7983,1,4,0.1863,7,0,7,7,0
5,1,236,1,4,4,211, man295.jpg, cue_4.jpg,1,1.3861,1,4,0.3354,2,0.2558,1,4,0.2615
5,1,237,2,3,2,42, man063.jpg, cue_3.jpg,2,1.9516,1,4,0.2052,4,0.1918,1,4,0.1716
5,1,238,1,1,3,27, man044.jpg, cue_1.jpg,1,2.0578,1,4,0.7551,3,1.2797,1,4,0.301
5,1,239,1,2,1,227, man313.jpg, cue_2.jpg,1,1.5735,1,4,0.3074,1,0.1917,1,4,0.1735
5,1,240,2,1,3,2, man004.jpg, cue_1.jpg,2,3.7236,1,4,0.239,3,0.3517,1,4,0.1652
6,1,1,3,0,0,202, man278.jpg, ,1,1.7942,0,2,2.0718,3,2.2067,0,3,3.9691
6,1,2,2,3,4,55, man079.jpg, cue_3.jpg,1,4.1299,3,4,1.3966,4,0.9911,1,4,1.8553
6,1,3,3,0,0,120, man162.jpg, ,3,4.819,1,4,1.1143,7,0,7,7,0
6,1,4,2,1,3,168, man229.jpg, cue_1.jpg,2,5.6019,1,3,1.239,3,1.6633,1,3,2.1882
6,1,5,2,2,2,124, man166.jpg, cue_2.jpg,2,2.5983,1,4,0.697,1,0.7995,1,4,0.7453
6,1,6,3,0,0,78, man110.jpg, ,3,1.2468,1,4,1.6899,7,0,7,7,0
6,1,7,1,4,1,69, man100.jpg, cue_4.jpg,1,5.9906,1,4,1.5172,2,3.0397,1,4,0.6535
6,1,8,3,0,0,118, man160.jpg, ,3,3.2716,1,4,1.8053,7,0,7,7,0
6,1,9,3,0,0,108, man149.jpg, ,3,3.6554,1,4,0.6515,7,0,7,7,0
6,1,10,2,1,3,11, man019.jpg, cue_1.jpg,1,8.6793,3,3,0.9548,3,4.1278,1,4,0.9014
6,1,11,2,2,2,93, man128.jpg, cue_2.jpg,2,8.4207,1,2,0.9793,1,2.1116,1,4,0.9273
6,1,12,1,4,1,144, man190.jpg, cue_4.jpg,1,2.5432,1,4,0.7882,3,2.1759,0,4,0.8382
6,1,13,3,0,0,126, man168.jpg, ,3,1.0971,1,4,0.6671,7,0,7,7,0
6,1,14,2,3,4,105, man144.jpg, cue_3.jpg,2,3.3003,1,4,0.9856,4,0.7682,1,4,0.4791
6,1,15,3,0,0,240, man336.jpg, ,3,9.5999,1,3,1.3228,7,0,7,7,0
6,1,16,2,1,3,98, man134.jpg, cue_1.jpg,2,2.2827,1,4,0.9548,3,0.8001,1,4,0.576
6,1,17,3,0,0,179, man244.jpg, ,3,6.7012,1,2,1.7791,7,0,7,7,0
6,1,18,2,4,1,203, man279.jpg, cue_4.jpg,2,5.0865,1,4,0.9531,2,0.7039,1,4,0.3865
6,1,19,2,4,1,228, man314.jpg, cue_4.jpg,1,1.7999,3,4,0.5065,2,3.4559,1,4,0.5809
6,1,20,3,0,0,219, man304.jpg, ,3,1.2495,1,4,1.0191,7,0,7,7,0
6,1,21,3,0,0,13, man023.jpg, ,3,1.1919,1,4,0.5334,7,0,7,7,0
6,1,22,2,1,3,94, man129.jpg, cue_1.jpg,2,3.0444,1,4,0.4682,3,0.8637,1,4,0.3311
6,1,23,1,3,4,152, man202.jpg, cue_3.jpg,1,3.8107,1,4,1.5224,4,0.7999,1,4,0.8318
6,1,24,3,0,0,207, man284.jpg, ,3,1.5058,1,4,0.5624,7,0,7,7,0
6,1,25,1,3,4,132, man177.jpg, cue_3.jpg,1,1.8561,1,3,5.201,4,1.4397,1,4,0.6487
6,1,26,1,4,1,226, man312.jpg, cue_4.jpg,1,2.3404,1,4,0.8499,2,0.6394,1,4,0.738
6,1,27,1,1,3,30, man048.jpg, cue_1.jpg,1,4.1025,1,4,0.6351,3,1.6322,1,4,0.4282
6,1,28,2,2,2,83, man115.jpg, cue_2.jpg,1,1.8237,3,4,1.6185,1,0.5439,1,4,0.647
6,1,29,1,1,3,112, man154.jpg, cue_1.jpg,1,10.4962,1,4,0.5686,3,0.7356,1,4,0.3207
6,1,30,2,4,1,205, man282.jpg, cue_4.jpg,2,1.3207,1,4,0.6863,2,1.0557,1,4,0.4225
6,1,31,2,2,2,37, man058.jpg, cue_2.jpg,2,3.9462,1,3,1.2333,1,1.248,1,4,2.1232
6,1,32,2,4,1,139, man185.jpg, cue_4.jpg,2,3.0479,1,3,1.3037,2,0.8957,1,4,0.427
6,1,33,3,0,0,102, man138.jpg, ,3,6.2864,1,4,0.8228,7,0,7,7,0
6,1,34,1,2,2,29, man047.jpg, cue_2.jpg,1,3.6896,1,4,0.7823,1,0.5121,1,4,0.3907
6,1,35,2,3,4,45, man067.jpg, cue_3.jpg,2,1.2603,1,4,0.6309,4,2.1443,1,4,0.3853
6,1,36,3,0,0,220, man305.jpg, ,3,8.0385,1,4,0.6292,7,0,7,7,0
6,1,37,2,2,2,115, man157.jpg, cue_2.jpg,2,3.8079,1,4,0.4638,1,0.6721,1,4,0.3827
6,1,38,1,1,3,68, man099.jpg, cue_1.jpg,1,1.7318,1,4,0.5712,3,0.7039,1,4,0.5483
6,1,39,2,1,3,110, man152.jpg, cue_1.jpg,2,1.2826,1,4,0.4753,3,0.5433,1,4,0.2888
6,1,40,2,2,2,141, man187.jpg, cue_2.jpg,1,5.6742,3,3,1.1467,1,2.8798,1,4,0.7381
6,1,41,1,1,3,213, man297.jpg, cue_1.jpg,1,5.9929,1,4,0.5245,3,2.1762,1,4,0.4266
6,1,42,2,2,2,233, man326.jpg, cue_2.jpg,2,2.0302,1,4,0.633,1,0.448,1,4,0.3311
6,1,43,2,1,3,114, man156.jpg, cue_1.jpg,2,1.09,1,4,0.3399,3,0.4794,1,4,0.1922
6,1,44,1,2,2,157, man208.jpg, cue_2.jpg,1,3.1476,1,4,0.4098,1,0.6718,1,4,0.2675
6,1,45,1,4,1,33, man054.jpg, cue_4.jpg,2,4.1974,2,3,0.5972,2,0.6082,1,4,0.2894
6,1,46,2,4,1,4, man007.jpg, cue_4.jpg,2,1.8029,1,4,0.5556,2,0.9919,1,4,0.2368
6,1,47,1,1,3,20, man034.jpg, cue_1.jpg,1,3.656,1,3,0.7184,3,2.4316,1,3,0.7133
6,1,48,2,3,4,14, man024.jpg, cue_3.jpg,2,1.3762,1,4,0.4383,4,1.2478,1,4,0.4928
6,1,49,1,3,4,150, man199.jpg, cue_3.jpg,1,1.2472,1,4,0.5069,4,1.3436,1,4,0.3965
6,1,50,3,0,0,3, man005.jpg, ,3,1.1208,1,4,0.6549,7,0,7,7,0
6,1,51,3,0,0,24, man040.jpg, ,3,1.1314,1,4,0.4749,7,0,7,7,0
6,1,52,2,4,1,48, man071.jpg, cue_4.jpg,2,1.3895,1,4,0.5627,2,0.4158,1,4,0.2328
6,1,53,1,2,2,61, man089.jpg, cue_2.jpg,2,4.2602,2,4,0.4971,1,0.3519,1,4,0.3325
6,1,54,2,1,3,210, man291.jpg, cue_1.jpg,2,3.1061,1,4,0.4651,3,0.5439,1,4,0.3577
6,1,55,3,0,0,58, man085.jpg, ,3,1.0043,1,4,0.4977,7,0,7,7,0
6,1,56,2,3,4,82, man114.jpg, cue_3.jpg,2,1.5059,1,4,0.5304,4,0.5441,1,4,0.2279
6,1,57,3,0,0,125, man167.jpg, ,3,7.4878,1,2,1.1093,7,0,7,7,0
6,1,58,2,3,4,155, man206.jpg, cue_3.jpg,2,1.5456,1,4,0.5391,4,0.576,1,4,0.2358
6,1,59,1,4,1,92, man126.jpg, cue_4.jpg,1,2.5033,1,4,0.3975,2,0.7997,1,4,0.298
6,1,60,2,1,3,127, man169.jpg, cue_1.jpg,1,1.5391,3,4,0.3382,3,0.8315,1,4,0.2558
6,1,61,3,0,0,46, man068.jpg, ,3,1.3546,1,4,0.3034,7,0,7,7,0
6,1,62,1,1,3,183, man248.jpg, cue_1.jpg,2,2.8579,2,2,1.0095,2,5.2799,0,4,0.6169
6,1,63,3,0,0,60, man088.jpg, ,3,1.2521,1,4,0.3353,7,0,7,7,0
6,1,64,2,2,2,5, man010.jpg, cue_2.jpg,2,2.0543,1,4,0.8796,1,0.6401,1,4,0.3353
6,1,65,3,0,0,66, man095.jpg, ,3,1.0304,1,4,0.251,7,0,7,7,0
6,1,66,3,0,0,75, man107.jpg, ,3,4.518,1,4,1.0161,7,0,7,7,0
6,1,67,2,4,1,128, man170.jpg, cue_4.jpg,2,2.1453,1,3,0.5045,2,3.1682,1,4,0.3975
6,1,68,3,0,0,73, man105.jpg, ,3,1.5048,1,4,0.2107,7,0,7,7,0
6,1,69,1,2,2,40, man061.jpg, cue_2.jpg,1,1.5515,1,4,0.6539,1,0.9918,1,4,0.2318
6,1,70,1,2,2,199, man275.jpg, cue_2.jpg,1,17.1841,1,4,0.8508,1,0.7356,1,4,0.3673
6,1,71,1,2,2,17, man029.jpg, cue_2.jpg,3,0.9652,0,4,0.187,7,0,7,7,0
6,1,72,1,1,3,23, man039.jpg, cue_1.jpg,2,6.6019,2,2,0.9481,3,3.1042,1,3,0.4583
6,1,73,3,0,0,234, man327.jpg, ,3,4.2047,1,4,0.3472,7,0,7,7,0
6,1,74,3,0,0,88, man122.jpg, ,3,1.059,1,4,0.214,7,0,7,7,0
6,1,75,3,0,0,185, man250.jpg, ,3,0.8313,1,4,0.2057,7,0,7,7,0
6,1,76,2,2,2,217, man302.jpg, cue_2.jpg,2,1.5157,1,4,0.2511,2,3.4876,0,4,0.2674
6,1,77,2,1,3,212, man296.jpg, cue_1.jpg,2,1.0965,1,4,0.2824,3,0.4798,1,4,0.1054
6,1,78,2,3,4,62, man091.jpg, cue_3.jpg,2,1.1625,1,4,0.5376,4,1.5996,1,4,0.174
6,1,79,3,0,0,54, man078.jpg, ,3,1.1975,1,4,0.1551,7,0,7,7,0
6,1,80,1,4,1,174, man237.jpg, cue_4.jpg,1,1.2582,1,4,0.2769,2,1.0563,1,4,0.2361
6,1,81,3,0,0,47, man070.jpg, ,3,1.2237,1,4,0.148,7,0,7,7,0
6,1,82,3,0,0,224, man310.jpg, ,3,0.803,1,4,0.1448,7,0,7,7,0
6,1,83,2,2,2,25, man041.jpg, cue_2.jpg,1,1.6319,3,4,0.2505,1,0.768,1,4,0.1429
6,1,84,2,2,2,178, man242.jpg, cue_2.jpg,2,4.1586,1,3,1.4879,4,2.1758,0,4,0.2293
6,1,85,1,2,2,153, man203.jpg, cue_2.jpg,1,1.9846,1,4,0.5715,1,0.3836,1,4,0.2279
6,1,86,3,0,0,65, man094.jpg, ,3,1.5034,1,4,0.6239,7,0,7,7,0
6,1,87,2,3,4,176, man240.jpg, cue_3.jpg,2,3.3392,1,4,0.3955,4,0.6721,1,4,0.2243
6,1,88,3,0,0,227, man313.jpg, ,3,0.9086,1,4,0.1821,7,0,7,7,0
6,1,89,1,3,4,84, man117.jpg, cue_3.jpg,1,1.1237,1,4,0.3401,4,1.5998,1,4,1.7608
6,1,90,1,3,4,201, man277.jpg, cue_3.jpg,2,2.9575,2,4,0.3368,4,0.4156,1,4,0.2704
6,1,91,3,0,0,21, man035.jpg, ,3,1.1307,1,4,0.1549,7,0,7,7,0
6,1,92,2,3,4,218, man303.jpg, cue_3.jpg,2,1.3223,1,4,0.9463,4,0.7359,1,4,0.2667
6,1,93,2,2,2,173, man236.jpg, cue_2.jpg,2,1.125,1,4,0.9813,1,3.3598,1,4,0.2705
6,1,94,3,0,0,38, man059.jpg, ,3,1.6371,1,4,0.2115,7,0,7,7,0
6,1,95,1,2,2,39, man060.jpg, cue_2.jpg,1,8.2235,1,3,1.1424,1,1.9516,1,4,0.226
6,1,96,1,4,1,130, man172.jpg, cue_4.jpg,1,3.9671,1,4,0.5367,2,0.6077,1,4,0.2314
6,1,97,3,0,0,119, man161.jpg, ,3,0.963,1,4,0.1867,7,0,7,7,0
6,1,98,1,4,1,91, man125.jpg, cue_4.jpg,1,6.2163,1,4,0.4033,2,3.1678,1,4,0.3006
6,1,99,1,2,2,90, man124.jpg, cue_2.jpg,1,4.0692,1,2,0.4744,1,4.576,1,1,2.086
6,1,100,2,3,4,216, man301.jpg, cue_3.jpg,1,4.9315,3,2,1.9085,3,4.9918,0,4,0.642
6,1,101,3,0,0,147, man196.jpg, ,3,3.6926,1,3,0.6881,7,0,7,7,0
6,1,102,2,3,4,198, man273.jpg, cue_3.jpg,2,2.0898,1,4,0.4018,4,0.4479,1,4,0.3015
6,1,103,3,0,0,180, man245.jpg, ,3,0.998,1,4,0.2191,7,0,7,7,0
6,1,104,1,1,3,36, man057.jpg, cue_1.jpg,1,2.6322,1,4,0.6338,3,0.6078,1,4,0.3243
6,1,105,1,1,3,136, man182.jpg, cue_1.jpg,1,1.9962,1,4,0.5045,3,0.4477,1,4,0.1594
6,1,106,1,1,3,70, man101.jpg, cue_1.jpg,3,9.9662,0,4,0.5067,7,0,7,7,0
6,1,107,1,4,1,156, man207.jpg, cue_4.jpg,1,3.4367,1,4,0.571,2,0.512,1,4,0.2704
6,1,108,1,1,3,211, man295.jpg, cue_1.jpg,1,1.6723,1,4,0.2738,3,1.632,1,4,0.1926
6,1,109,1,4,1,187, man253.jpg, cue_4.jpg,1,3.3102,1,3,0.7221,4,3.6802,0,2,0.4574
6,1,110,1,3,4,148, man197.jpg, cue_3.jpg,1,1.1318,1,4,0.3791,4,2.6238,1,4,0.5576
6,1,111,1,1,3,76, man108.jpg, cue_1.jpg,1,3.66,1,4,0.6258,3,1.6637,1,4,0.2885
6,1,112,1,3,4,197, man271.jpg, cue_3.jpg,3,3.754,0,2,0.3465,7,0,7,7,0
6,1,113,1,3,4,162, man215.jpg, cue_3.jpg,1,1.5069,1,2,2.5794,4,1.2795,1,4,0.4164
6,1,114,3,0,0,122, man164.jpg, ,3,1.7,1,4,0.2194,7,0,7,7,0
6,1,115,1,4,1,143, man189.jpg, cue_4.jpg,1,6.3128,1,2,0.6558,2,2.3998,1,3,0.9105
6,1,116,1,4,1,113, man155.jpg, cue_4.jpg,1,2.7983,1,3,0.5368,2,0.576,1,4,0.2625
6,1,117,3,0,0,2, man004.jpg, ,3,1.0913,1,4,0.2771,7,0,7,7,0
6,1,118,1,3,4,171, man233.jpg, cue_3.jpg,2,1.3912,2,4,0.3405,4,0.8001,1,4,0.1952
6,1,119,3,0,0,239, man333.jpg, ,3,1.0859,1,4,0.2423,7,0,7,7,0
6,1,120,2,3,4,204, man281.jpg, cue_3.jpg,2,1.2298,1,4,1.4018,4,0.5756,1,4,0.1979
6,1,121,2,1,3,208, man287.jpg, cue_1.jpg,1,2.56,3,3,1.7189,3,2.0481,1,4,0.4883
6,1,122,2,4,1,12, man022.jpg, cue_4.jpg,1,2.535,3,3,1.1341,2,2.144,1,4,0.6752
6,1,123,1,3,4,8, man015.jpg, cue_3.jpg,1,3.9163,1,4,1.7521,4,0.5444,1,4,0.3911
6,1,124,3,0,0,206, man283.jpg, ,3,2.6362,1,4,0.4291,7,0,7,7,0
6,1,125,2,2,2,6, man013.jpg, cue_2.jpg,2,1.2162,1,4,0.507,1,7.2319,1,2,1.1892
6,1,126,1,3,4,100, man136.jpg, cue_3.jpg,1,1.7712,1,4,1.1685,4,0.5435,1,4,0.2316
6,1,127,3,0,0,135, man180.jpg, ,3,1.2508,1,4,0.3019,7,0,7,7,0
6,1,128,3,0,0,134, man179.jpg, ,3,0.8706,1,4,0.2417,7,0,7,7,0
6,1,129,2,4,1,67, man096.jpg, cue_4.jpg,1,6.0932,3,2,1.1013,2,1.8551,1,2,0.3193
6,1,130,3,0,0,71, man102.jpg, ,3,1.7354,1,4,0.1741,7,0,7,7,0
6,1,131,1,3,4,169, man230.jpg, cue_3.jpg,1,1.2601,1,4,0.2791,4,0.6716,1,4,0.2386
6,1,132,3,0,0,28, man045.jpg, ,3,1.0638,1,4,0.1727,7,0,7,7,0
6,1,133,2,1,3,52, man076.jpg, cue_1.jpg,2,1.259,1,2,2.8697,3,1.3756,1,4,0.2897
6,1,134,3,0,0,177, man241.jpg, ,3,1.036,1,4,0.1759,7,0,7,7,0
6,1,135,3,0,0,181, man246.jpg, ,3,2.958,1,3,0.6227,7,0,7,7,0
6,1,136,1,3,4,223, man309.jpg, cue_3.jpg,1,1.229,1,4,0.4413,4,2.2719,1,4,0.4865
6,1,137,3,0,0,111, man153.jpg, ,3,1.0932,1,4,0.1855,7,0,7,7,0
6,1,138,2,4,1,31, man050.jpg, cue_4.jpg,2,1.9586,1,3,0.8842,1,6.5279,0,2,0.7489
6,1,139,3,0,0,200, man276.jpg, ,3,0.9946,1,4,0.1816,7,0,7,7,0
6,1,140,3,0,0,32, man052.jpg, ,3,1.7982,1,4,0.1549,7,0,7,7,0
6,1,141,3,0,0,10, man017.jpg, ,3,1.0975,1,4,0.1874,7,0,7,7,0
6,1,142,1,2,2,96, man131.jpg, cue_2.jpg,1,1.7369,1,3,0.4956,1,0.8963,1,4,0.1962
6,1,143,3,0,0,116, man158.jpg, ,3,0.9928,1,4,0.1512,7,0,7,7,0
6,1,144,2,1,3,64, man093.jpg, cue_1.jpg,2,1.574,1,4,0.2419,3,0.5439,1,4,0.1613
