SN,Btw,Trial,Block,bTrial,cCue,IMidx,IMname,CueName,Resp,RT,Corr
1,1,3,1,3,1,177, man241.jpg, cue_2.jpg,1,0.8539,1
1,1,4,1,4,1,157, man208.jpg, cue_2.jpg,3,0.946,0
1,1,13,1,13,1,193, man260.jpg, cue_2.jpg,1,0.8149,1
1,1,22,1,22,1,107, man147.jpg, cue_2.jpg,2,1.1093,0
1,1,25,1,25,1,46, man068.jpg, cue_2.jpg,1,0.8449,1
1,1,26,1,26,1,70, man101.jpg, cue_2.jpg,1,1.6575,1
1,1,31,1,31,1,143, man189.jpg, cue_2.jpg,1,1.2959,1
1,1,32,1,32,1,134, man179.jpg, cue_2.jpg,4,1.3546,0
1,1,33,1,33,1,222, man307.jpg, cue_2.jpg,1,0.8397,1
1,1,40,1,40,1,158, man209.jpg, cue_2.jpg,3,1.2396,0
1,1,45,1,45,1,59, man086.jpg, cue_2.jpg,1,1.2685,1
1,1,47,1,47,1,67, man096.jpg, cue_2.jpg,1,1.1612,1
1,1,49,1,49,1,225, man311.jpg, cue_2.jpg,2,1.1943,0
1,1,52,1,52,1,57, man084.jpg, cue_2.jpg,1,0.792,1
1,1,54,1,54,1,124, man166.jpg, cue_2.jpg,4,0.9512,0
1,1,58,1,58,1,180, man245.jpg, cue_2.jpg,1,1.442,1
1,1,63,1,63,1,100, man136.jpg, cue_2.jpg,1,2.0852,1
1,1,69,1,69,1,75, man107.jpg, cue_2.jpg,1,1.3537,1
1,1,76,1,76,1,139, man185.jpg, cue_2.jpg,1,0.8506,1
1,1,77,1,77,1,10, man017.jpg, cue_2.jpg,1,0.6871,1
1,1,7,1,7,2,226, man312.jpg, cue_4.jpg,2,0.8582,1
1,1,11,1,11,2,174, man237.jpg, cue_4.jpg,2,1.0708,1
1,1,21,1,21,2,205, man282.jpg, cue_4.jpg,2,1.0419,1
1,1,23,1,23,2,196, man268.jpg, cue_4.jpg,2,1.0223,1
1,1,28,1,28,2,227, man313.jpg, cue_4.jpg,2,0.6778,1
1,1,36,1,36,2,194, man262.jpg, cue_4.jpg,2,0.9403,1
1,1,38,1,38,2,35, man056.jpg, cue_4.jpg,2,1.5657,1
1,1,41,1,41,2,133, man178.jpg, cue_4.jpg,2,1.6098,1
1,1,48,1,48,2,104, man141.jpg, cue_4.jpg,2,1.4801,1
1,1,51,1,51,2,147, man196.jpg, cue_4.jpg,2,0.8759,1
1,1,57,1,57,2,76, man108.jpg, cue_4.jpg,3,1.4315,0
1,1,60,1,60,2,212, man296.jpg, cue_4.jpg,2,1.3364,1
1,1,61,1,61,2,117, man159.jpg, cue_4.jpg,3,1.4565,0
1,1,64,1,64,2,29, man047.jpg, cue_4.jpg,2,1.1663,1
1,1,65,1,65,2,170, man231.jpg, cue_4.jpg,2,0.8933,1
1,1,67,1,67,2,224, man310.jpg, cue_4.jpg,2,0.849,1
1,1,68,1,68,2,114, man156.jpg, cue_4.jpg,2,0.8585,1
1,1,70,1,70,2,199, man275.jpg, cue_4.jpg,3,1.3282,0
1,1,78,1,78,2,230, man316.jpg, cue_4.jpg,2,0.8028,1
1,1,79,1,79,2,176, man240.jpg, cue_4.jpg,2,1.4888,1
1,1,5,1,5,3,58, man085.jpg, cue_1.jpg,3,1.329,1
1,1,12,1,12,3,136, man182.jpg, cue_1.jpg,3,1.651,1
1,1,15,1,15,3,122, man164.jpg, cue_1.jpg,4,0.7964,0
1,1,17,1,17,3,159, man210.jpg, cue_1.jpg,3,1.2258,1
1,1,18,1,18,3,30, man048.jpg, cue_1.jpg,3,1.048,1
1,1,19,1,19,3,201, man277.jpg, cue_1.jpg,3,0.8916,1
1,1,27,1,27,3,121, man163.jpg, cue_1.jpg,3,0.7234,1
1,1,30,1,30,3,220, man305.jpg, cue_1.jpg,3,0.9859,1
1,1,37,1,37,3,53, man077.jpg, cue_1.jpg,3,1.0001,1
1,1,42,1,42,3,209, man289.jpg, cue_1.jpg,3,1.3038,1
1,1,43,1,43,3,142, man188.jpg, cue_1.jpg,3,1.1688,1
1,1,53,1,53,3,182, man247.jpg, cue_1.jpg,3,1.1433,1
1,1,62,1,62,3,210, man291.jpg, cue_1.jpg,4,1.77,0
1,1,66,1,66,3,145, man191.jpg, cue_1.jpg,3,0.9362,1
1,1,71,1,71,3,56, man082.jpg, cue_1.jpg,3,1.1989,1
1,1,72,1,72,3,79, man111.jpg, cue_1.jpg,3,0.6848,1
1,1,73,1,73,3,8, man015.jpg, cue_1.jpg,2,1.2761,0
1,1,74,1,74,3,109, man150.jpg, cue_1.jpg,3,1.7596,1
1,1,75,1,75,3,41, man062.jpg, cue_1.jpg,3,1.3706,1
1,1,80,1,80,3,206, man283.jpg, cue_1.jpg,3,1.3948,1
1,1,1,1,1,4,221, man306.jpg, cue_3.jpg,4,0.9006,1
1,1,2,1,2,4,44, man066.jpg, cue_3.jpg,4,1.3578,1
1,1,6,1,6,4,96, man131.jpg, cue_3.jpg,4,0.729,1
1,1,8,1,8,4,190, man257.jpg, cue_3.jpg,4,0.7906,1
1,1,9,1,9,4,208, man287.jpg, cue_3.jpg,2,0.886,0
1,1,10,1,10,4,237, man330.jpg, cue_3.jpg,4,0.9186,1
1,1,14,1,14,4,146, man193.jpg, cue_3.jpg,4,0.6842,1
1,1,16,1,16,4,185, man250.jpg, cue_3.jpg,4,0.9798,1
1,1,20,1,20,4,101, man137.jpg, cue_3.jpg,4,1.2697,1
1,1,24,1,24,4,236, man329.jpg, cue_3.jpg,4,0.9157,1
1,1,29,1,29,4,198, man273.jpg, cue_3.jpg,4,0.7457,1
1,1,34,1,34,4,150, man199.jpg, cue_3.jpg,4,1.108,1
1,1,35,1,35,4,2, man004.jpg, cue_3.jpg,3,1.0793,0
1,1,39,1,39,4,61, man089.jpg, cue_3.jpg,4,1.2436,1
1,1,44,1,44,4,49, man072.jpg, cue_3.jpg,4,0.6875,1
1,1,46,1,46,4,164, man221.jpg, cue_3.jpg,4,0.8939,1
1,1,50,1,50,4,108, man149.jpg, cue_3.jpg,4,0.8296,1
1,1,55,1,55,4,115, man157.jpg, cue_3.jpg,2,0.87,0
1,1,56,1,56,4,140, man186.jpg, cue_3.jpg,4,0.7753,1
1,1,59,1,59,4,4, man007.jpg, cue_3.jpg,4,0.7268,1
1,1,85,2,5,1,177, man241.jpg, cue_2.jpg,1,0.6911,1
1,1,87,2,7,1,222, man307.jpg, cue_2.jpg,1,0.6214,1
1,1,91,2,11,1,139, man185.jpg, cue_2.jpg,1,0.7256,1
1,1,93,2,13,1,70, man101.jpg, cue_2.jpg,1,0.8099,1
1,1,95,2,15,1,57, man084.jpg, cue_2.jpg,1,0.6322,1
1,1,98,2,18,1,75, man107.jpg, cue_2.jpg,1,0.6799,1
1,1,100,2,20,1,180, man245.jpg, cue_2.jpg,1,0.6938,1
1,1,103,2,23,1,10, man017.jpg, cue_2.jpg,1,0.6332,1
1,1,104,2,24,1,124, man166.jpg, cue_2.jpg,1,1.9181,1
1,1,111,2,31,1,225, man311.jpg, cue_2.jpg,1,0.8881,1
1,1,113,2,33,1,59, man086.jpg, cue_2.jpg,1,0.6447,1
1,1,122,2,42,1,46, man068.jpg, cue_2.jpg,1,0.6886,1
1,1,123,2,43,1,100, man136.jpg, cue_2.jpg,1,1.4933,1
1,1,128,2,48,1,134, man179.jpg, cue_2.jpg,1,0.8528,1
1,1,134,2,54,1,107, man147.jpg, cue_2.jpg,1,1.2749,1
1,1,138,2,58,1,193, man260.jpg, cue_2.jpg,1,0.6304,1
1,1,147,2,67,1,143, man189.jpg, cue_2.jpg,1,0.789,1
1,1,155,2,75,1,158, man209.jpg, cue_2.jpg,3,2.1805,0
1,1,156,2,76,1,67, man096.jpg, cue_2.jpg,1,0.7671,1
1,1,157,2,77,1,157, man208.jpg, cue_2.jpg,1,1.5021,1
1,1,92,2,12,2,227, man313.jpg, cue_4.jpg,2,0.709,1
1,1,94,2,14,2,104, man141.jpg, cue_4.jpg,2,0.7747,1
1,1,96,2,16,2,76, man108.jpg, cue_4.jpg,2,0.8457,1
1,1,102,2,22,2,29, man047.jpg, cue_4.jpg,2,0.8114,1
1,1,116,2,36,2,230, man316.jpg, cue_4.jpg,2,0.5395,1
1,1,120,2,40,2,176, man240.jpg, cue_4.jpg,2,1.0986,1
1,1,121,2,41,2,205, man282.jpg, cue_4.jpg,2,1.0356,1
1,1,127,2,47,2,170, man231.jpg, cue_4.jpg,2,0.8722,1
1,1,129,2,49,2,212, man296.jpg, cue_4.jpg,2,0.6892,1
1,1,130,2,50,2,35, man056.jpg, cue_4.jpg,2,1.1476,1
1,1,131,2,51,2,199, man275.jpg, cue_4.jpg,2,0.8655,1
1,1,132,2,52,2,194, man262.jpg, cue_4.jpg,2,1.3275,1
1,1,133,2,53,2,117, man159.jpg, cue_4.jpg,2,1.0633,1
1,1,140,2,60,2,224, man310.jpg, cue_4.jpg,2,0.6799,1
1,1,141,2,61,2,114, man156.jpg, cue_4.jpg,2,1.0369,1
1,1,142,2,62,2,226, man312.jpg, cue_4.jpg,2,0.6892,1
1,1,144,2,64,2,174, man237.jpg, cue_4.jpg,2,1.1014,1
1,1,150,2,70,2,133, man178.jpg, cue_4.jpg,2,0.7264,1
1,1,154,2,74,2,196, man268.jpg, cue_4.jpg,2,0.7222,1
1,1,158,2,78,2,147, man196.jpg, cue_4.jpg,2,0.7351,1
1,1,81,2,1,3,121, man163.jpg, cue_1.jpg,3,0.9057,1
1,1,82,2,2,3,109, man150.jpg, cue_1.jpg,3,0.6768,1
1,1,83,2,3,3,182, man247.jpg, cue_1.jpg,3,0.632,1
1,1,99,2,19,3,41, man062.jpg, cue_1.jpg,3,0.908,1
1,1,106,2,26,3,206, man283.jpg, cue_1.jpg,3,0.8401,1
1,1,107,2,27,3,122, man164.jpg, cue_1.jpg,4,0.9498,0
1,1,108,2,28,3,209, man289.jpg, cue_1.jpg,3,0.7088,1
1,1,114,2,34,3,8, man015.jpg, cue_1.jpg,3,0.6817,1
1,1,118,2,38,3,159, man210.jpg, cue_1.jpg,3,0.7777,1
1,1,119,2,39,3,30, man048.jpg, cue_1.jpg,3,0.7247,1
1,1,135,2,55,3,136, man182.jpg, cue_1.jpg,3,0.7896,1
1,1,136,2,56,3,58, man085.jpg, cue_1.jpg,3,1.2686,1
1,1,137,2,57,3,53, man077.jpg, cue_1.jpg,3,0.6239,1
1,1,139,2,59,3,56, man082.jpg, cue_1.jpg,3,0.844,1
1,1,143,2,63,3,142, man188.jpg, cue_1.jpg,3,0.9328,1
1,1,145,2,65,3,210, man291.jpg, cue_1.jpg,3,1.0064,1
1,1,149,2,69,3,79, man111.jpg, cue_1.jpg,3,0.69,1
1,1,151,2,71,3,145, man191.jpg, cue_1.jpg,3,0.7912,1
1,1,159,2,79,3,220, man305.jpg, cue_1.jpg,3,1.2961,1
1,1,160,2,80,3,201, man277.jpg, cue_1.jpg,3,0.8411,1
1,1,84,2,4,4,221, man306.jpg, cue_3.jpg,4,0.6212,1
1,1,86,2,6,4,108, man149.jpg, cue_3.jpg,4,0.6312,1
1,1,88,2,8,4,140, man186.jpg, cue_3.jpg,4,0.6109,1
1,1,89,2,9,4,96, man131.jpg, cue_3.jpg,4,0.7443,1
1,1,90,2,10,4,150, man199.jpg, cue_3.jpg,4,0.8576,1
1,1,97,2,17,4,44, man066.jpg, cue_3.jpg,4,0.8098,1
1,1,101,2,21,4,49, man072.jpg, cue_3.jpg,4,0.7123,1
1,1,105,2,25,4,2, man004.jpg, cue_3.jpg,4,0.8775,1
1,1,109,2,29,4,115, man157.jpg, cue_3.jpg,4,0.7259,1
1,1,110,2,30,4,185, man250.jpg, cue_3.jpg,4,0.8094,1
1,1,112,2,32,4,61, man089.jpg, cue_3.jpg,4,0.7227,1
1,1,115,2,35,4,164, man221.jpg, cue_3.jpg,4,0.7803,1
1,1,117,2,37,4,190, man257.jpg, cue_3.jpg,4,0.6622,1
1,1,124,2,44,4,101, man137.jpg, cue_3.jpg,4,0.6624,1
1,1,125,2,45,4,4, man007.jpg, cue_3.jpg,4,0.6637,1
1,1,126,2,46,4,198, man273.jpg, cue_3.jpg,4,0.9107,1
1,1,146,2,66,4,146, man193.jpg, cue_3.jpg,4,0.7894,1
1,1,148,2,68,4,236, man329.jpg, cue_3.jpg,4,0.8207,1
1,1,152,2,72,4,237, man330.jpg, cue_3.jpg,4,0.9174,1
1,1,153,2,73,4,208, man287.jpg, cue_3.jpg,4,0.7206,1
1,1,163,3,3,1,124, man166.jpg, cue_2.jpg,1,0.6614,1
1,1,165,3,5,1,46, man068.jpg, cue_2.jpg,1,0.8942,1
1,1,170,3,10,1,10, man017.jpg, cue_2.jpg,1,0.7845,1
1,1,176,3,16,1,75, man107.jpg, cue_2.jpg,1,0.707,1
1,1,178,3,18,1,180, man245.jpg, cue_2.jpg,1,0.6605,1
1,1,179,3,19,1,222, man307.jpg, cue_2.jpg,1,0.7779,1
1,1,184,3,24,1,67, man096.jpg, cue_2.jpg,1,0.7171,1
1,1,196,3,36,1,59, man086.jpg, cue_2.jpg,1,0.6593,1
1,1,197,3,37,1,139, man185.jpg, cue_2.jpg,1,0.8871,1
1,1,198,3,38,1,193, man260.jpg, cue_2.jpg,1,0.6905,1
1,1,209,3,49,1,225, man311.jpg, cue_2.jpg,1,1.449,1
1,1,210,3,50,1,177, man241.jpg, cue_2.jpg,1,0.7494,1
1,1,215,3,55,1,107, man147.jpg, cue_2.jpg,1,1.4931,1
1,1,222,3,62,1,57, man084.jpg, cue_2.jpg,1,0.7063,1
1,1,226,3,66,1,134, man179.jpg, cue_2.jpg,1,0.7801,1
1,1,228,3,68,1,143, man189.jpg, cue_2.jpg,1,0.7462,1
1,1,230,3,70,1,70, man101.jpg, cue_2.jpg,1,0.8072,1
1,1,231,3,71,1,100, man136.jpg, cue_2.jpg,1,1.7335,1
1,1,232,3,72,1,158, man209.jpg, cue_2.jpg,1,1.4041,1
1,1,239,3,79,1,157, man208.jpg, cue_2.jpg,1,0.8409,1
1,1,166,3,6,2,212, man296.jpg, cue_4.jpg,2,1.0639,1
1,1,168,3,8,2,104, man141.jpg, cue_4.jpg,2,0.6853,1
1,1,173,3,13,2,194, man262.jpg, cue_4.jpg,2,0.7181,1
1,1,175,3,15,2,147, man196.jpg, cue_4.jpg,2,0.7383,1
1,1,180,3,20,2,114, man156.jpg, cue_4.jpg,2,0.6492,1
1,1,182,3,22,2,199, man275.jpg, cue_4.jpg,2,0.749,1
1,1,183,3,23,2,230, man316.jpg, cue_4.jpg,2,0.7824,1
1,1,186,3,26,2,176, man240.jpg, cue_4.jpg,2,0.7766,1
1,1,190,3,30,2,133, man178.jpg, cue_4.jpg,2,0.7419,1
1,1,193,3,33,2,76, man108.jpg, cue_4.jpg,2,0.7237,1
1,1,203,3,43,2,29, man047.jpg, cue_4.jpg,2,0.7474,1
1,1,204,3,44,2,227, man313.jpg, cue_4.jpg,2,0.7484,1
1,1,206,3,46,2,205, man282.jpg, cue_4.jpg,2,0.7523,1
1,1,207,3,47,2,174, man237.jpg, cue_4.jpg,2,0.7222,1
1,1,211,3,51,2,226, man312.jpg, cue_4.jpg,2,0.782,1
1,1,219,3,59,2,170, man231.jpg, cue_4.jpg,2,0.9029,1
1,1,225,3,65,2,117, man159.jpg, cue_4.jpg,2,1.0818,1
1,1,227,3,67,2,35, man056.jpg, cue_4.jpg,2,0.7797,1
1,1,238,3,78,2,196, man268.jpg, cue_4.jpg,2,0.6951,1
1,1,240,3,80,2,224, man310.jpg, cue_4.jpg,2,0.8066,1
1,1,161,3,1,3,210, man291.jpg, cue_1.jpg,3,0.9691,1
1,1,167,3,7,3,109, man150.jpg, cue_1.jpg,3,0.7318,1
1,1,169,3,9,3,41, man062.jpg, cue_1.jpg,3,0.7849,1
1,1,171,3,11,3,121, man163.jpg, cue_1.jpg,3,0.7672,1
1,1,172,3,12,3,122, man164.jpg, cue_1.jpg,3,0.7823,1
1,1,174,3,14,3,220, man305.jpg, cue_1.jpg,3,0.7042,1
1,1,177,3,17,3,159, man210.jpg, cue_1.jpg,3,0.7902,1
1,1,187,3,27,3,53, man077.jpg, cue_1.jpg,3,0.7112,1
1,1,188,3,28,3,8, man015.jpg, cue_1.jpg,3,0.7454,1
1,1,200,3,40,3,58, man085.jpg, cue_1.jpg,3,1.368,1
1,1,201,3,41,3,136, man182.jpg, cue_1.jpg,3,0.9108,1
1,1,205,3,45,3,79, man111.jpg, cue_1.jpg,3,0.6845,1
1,1,208,3,48,3,56, man082.jpg, cue_1.jpg,3,0.6276,1
1,1,213,3,53,3,206, man283.jpg, cue_1.jpg,3,0.6197,1
1,1,216,3,56,3,142, man188.jpg, cue_1.jpg,3,0.6956,1
1,1,218,3,58,3,30, man048.jpg, cue_1.jpg,3,0.6584,1
1,1,223,3,63,3,209, man289.jpg, cue_1.jpg,3,0.7568,1
1,1,229,3,69,3,201, man277.jpg, cue_1.jpg,3,0.8595,1
1,1,235,3,75,3,145, man191.jpg, cue_1.jpg,3,0.6542,1
1,1,236,3,76,3,182, man247.jpg, cue_1.jpg,3,0.7026,1
1,1,162,3,2,4,146, man193.jpg, cue_3.jpg,4,0.6557,1
1,1,164,3,4,4,140, man186.jpg, cue_3.jpg,4,0.65,1
1,1,181,3,21,4,208, man287.jpg, cue_3.jpg,4,0.7818,1
1,1,185,3,25,4,150, man199.jpg, cue_3.jpg,4,0.9436,1
1,1,189,3,29,4,190, man257.jpg, cue_3.jpg,4,0.8745,1
1,1,191,3,31,4,44, man066.jpg, cue_3.jpg,4,0.7908,1
1,1,192,3,32,4,236, man329.jpg, cue_3.jpg,4,0.8223,1
1,1,194,3,34,4,185, man250.jpg, cue_3.jpg,4,0.7425,1
1,1,195,3,35,4,96, man131.jpg, cue_3.jpg,4,0.8867,1
1,1,199,3,39,4,49, man072.jpg, cue_3.jpg,4,0.7588,1
1,1,202,3,42,4,164, man221.jpg, cue_3.jpg,2,0.8413,0
1,1,212,3,52,4,108, man149.jpg, cue_3.jpg,4,0.7924,1
1,1,214,3,54,4,101, man137.jpg, cue_3.jpg,4,0.6896,1
1,1,217,3,57,4,4, man007.jpg, cue_3.jpg,4,0.5867,1
1,1,220,3,60,4,61, man089.jpg, cue_3.jpg,4,0.7535,1
1,1,221,3,61,4,115, man157.jpg, cue_3.jpg,4,0.7375,1
1,1,224,3,64,4,221, man306.jpg, cue_3.jpg,4,0.6603,1
1,1,233,3,73,4,237, man330.jpg, cue_3.jpg,4,1.2337,1
1,1,234,3,74,4,2, man004.jpg, cue_3.jpg,4,0.7488,1
1,1,237,3,77,4,198, man273.jpg, cue_3.jpg,4,0.7582,1
1,1,244,4,4,1,158, man209.jpg, cue_2.jpg,1,1.5547,1
1,1,246,4,6,1,157, man208.jpg, cue_2.jpg,1,0.8038,1
1,1,247,4,7,1,177, man241.jpg, cue_2.jpg,1,0.7254,1
1,1,249,4,9,1,75, man107.jpg, cue_2.jpg,1,0.6938,1
1,1,250,4,10,1,10, man017.jpg, cue_2.jpg,1,0.778,1
1,1,252,4,12,1,134, man179.jpg, cue_2.jpg,1,0.8091,1
1,1,258,4,18,1,100, man136.jpg, cue_2.jpg,1,0.6616,1
1,1,262,4,22,1,59, man086.jpg, cue_2.jpg,1,0.6734,1
1,1,270,4,30,1,57, man084.jpg, cue_2.jpg,1,0.6941,1
1,1,271,4,31,1,124, man166.jpg, cue_2.jpg,1,0.874,1
1,1,275,4,35,1,67, man096.jpg, cue_2.jpg,1,0.7871,1
1,1,281,4,41,1,222, man307.jpg, cue_2.jpg,1,0.6915,1
1,1,286,4,46,1,139, man185.jpg, cue_2.jpg,1,0.7328,1
1,1,289,4,49,1,107, man147.jpg, cue_2.jpg,1,1.0991,1
1,1,301,4,61,1,193, man260.jpg, cue_2.jpg,1,0.6594,1
1,1,303,4,63,1,180, man245.jpg, cue_2.jpg,1,0.6894,1
1,1,304,4,64,1,70, man101.jpg, cue_2.jpg,1,0.8212,1
1,1,305,4,65,1,143, man189.jpg, cue_2.jpg,1,0.6748,1
1,1,314,4,74,1,46, man068.jpg, cue_2.jpg,1,0.6793,1
1,1,320,4,80,1,225, man311.jpg, cue_2.jpg,1,0.7535,1
1,1,255,4,15,2,176, man240.jpg, cue_4.jpg,2,0.7623,1
1,1,257,4,17,2,170, man231.jpg, cue_4.jpg,2,0.757,1
1,1,260,4,20,2,205, man282.jpg, cue_4.jpg,2,0.7807,1
1,1,269,4,29,2,117, man159.jpg, cue_4.jpg,2,0.8757,1
1,1,272,4,32,2,226, man312.jpg, cue_4.jpg,2,0.7583,1
1,1,279,4,39,2,174, man237.jpg, cue_4.jpg,2,0.6909,1
1,1,285,4,45,2,35, man056.jpg, cue_4.jpg,2,0.7819,1
1,1,287,4,47,2,230, man316.jpg, cue_4.jpg,2,1.1667,1
1,1,290,4,50,2,104, man141.jpg, cue_4.jpg,2,0.6861,1
1,1,291,4,51,2,199, man275.jpg, cue_4.jpg,2,0.8008,1
1,1,294,4,54,2,114, man156.jpg, cue_4.jpg,2,0.6294,1
1,1,295,4,55,2,194, man262.jpg, cue_4.jpg,2,0.747,1
1,1,296,4,56,2,227, man313.jpg, cue_4.jpg,2,0.9389,1
1,1,297,4,57,2,224, man310.jpg, cue_4.jpg,2,0.6766,1
1,1,298,4,58,2,147, man196.jpg, cue_4.jpg,2,0.6629,1
1,1,299,4,59,2,212, man296.jpg, cue_4.jpg,2,0.5885,1
1,1,306,4,66,2,133, man178.jpg, cue_4.jpg,2,0.6782,1
1,1,308,4,68,2,196, man268.jpg, cue_4.jpg,2,0.6993,1
1,1,312,4,72,2,76, man108.jpg, cue_4.jpg,2,0.7418,1
1,1,316,4,76,2,29, man047.jpg, cue_4.jpg,2,0.6975,1
1,1,241,4,1,3,53, man077.jpg, cue_1.jpg,3,0.6733,1
1,1,242,4,2,3,109, man150.jpg, cue_1.jpg,3,0.6291,1
1,1,243,4,3,3,182, man247.jpg, cue_1.jpg,3,0.5872,1
1,1,245,4,5,3,58, man085.jpg, cue_1.jpg,3,0.6414,1
1,1,254,4,14,3,79, man111.jpg, cue_1.jpg,3,0.6946,1
1,1,256,4,16,3,201, man277.jpg, cue_1.jpg,3,0.9065,1
1,1,261,4,21,3,121, man163.jpg, cue_1.jpg,3,0.6204,1
1,1,264,4,24,3,145, man191.jpg, cue_1.jpg,3,0.6321,1
1,1,267,4,27,3,220, man305.jpg, cue_1.jpg,3,0.6221,1
1,1,274,4,34,3,159, man210.jpg, cue_1.jpg,3,0.787,1
1,1,276,4,36,3,8, man015.jpg, cue_1.jpg,3,1.0745,1
1,1,277,4,37,3,206, man283.jpg, cue_1.jpg,3,0.7573,1
1,1,280,4,40,3,122, man164.jpg, cue_1.jpg,3,1.6228,1
1,1,284,4,44,3,142, man188.jpg, cue_1.jpg,3,0.6486,1
1,1,292,4,52,3,210, man291.jpg, cue_1.jpg,3,0.8148,1
1,1,302,4,62,3,41, man062.jpg, cue_1.jpg,3,0.9366,1
1,1,307,4,67,3,209, man289.jpg, cue_1.jpg,3,1.4806,1
1,1,309,4,69,3,56, man082.jpg, cue_1.jpg,3,0.6861,1
1,1,313,4,73,3,136, man182.jpg, cue_1.jpg,3,0.7259,1
1,1,315,4,75,3,30, man048.jpg, cue_1.jpg,3,0.812,1
1,1,248,4,8,4,190, man257.jpg, cue_3.jpg,4,0.7903,1
1,1,251,4,11,4,185, man250.jpg, cue_3.jpg,4,0.745,1
1,1,253,4,13,4,221, man306.jpg, cue_3.jpg,4,0.7595,1
1,1,259,4,19,4,140, man186.jpg, cue_3.jpg,4,0.6659,1
1,1,263,4,23,4,101, man137.jpg, cue_3.jpg,4,0.7263,1
1,1,265,4,25,4,4, man007.jpg, cue_3.jpg,4,0.6685,1
1,1,266,4,26,4,96, man131.jpg, cue_3.jpg,4,0.8175,1
1,1,268,4,28,4,237, man330.jpg, cue_3.jpg,4,1.0138,1
1,1,273,4,33,4,146, man193.jpg, cue_3.jpg,4,0.855,1
1,1,278,4,38,4,49, man072.jpg, cue_3.jpg,4,0.8548,1
1,1,282,4,42,4,198, man273.jpg, cue_3.jpg,4,0.7102,1
1,1,283,4,43,4,108, man149.jpg, cue_3.jpg,4,0.7444,1
1,1,288,4,48,4,115, man157.jpg, cue_3.jpg,4,0.8138,1
1,1,293,4,53,4,164, man221.jpg, cue_3.jpg,4,0.9738,1
1,1,300,4,60,4,61, man089.jpg, cue_3.jpg,4,0.7879,1
1,1,310,4,70,4,2, man004.jpg, cue_3.jpg,4,0.7526,1
1,1,311,4,71,4,208, man287.jpg, cue_3.jpg,4,0.6736,1
1,1,317,4,77,4,44, man066.jpg, cue_3.jpg,4,0.6512,1
1,1,318,4,78,4,236, man329.jpg, cue_3.jpg,4,0.7368,1
1,1,319,4,79,4,150, man199.jpg, cue_3.jpg,4,0.7855,1
2,1,1,1,1,2,39, man060.jpg, cue_2.jpg,2,1.6004,1
2,1,2,1,2,2,1, man002.jpg, cue_2.jpg,1,0.9571,0
2,1,3,1,3,4,4, man007.jpg, cue_4.jpg,4,1.1302,1
2,1,4,1,4,4,115, man157.jpg, cue_4.jpg,4,1.0196,1
2,1,5,1,5,3,16, man027.jpg, cue_3.jpg,3,0.8317,1
2,1,6,1,6,2,99, man135.jpg, cue_2.jpg,2,0.7972,1
2,1,7,1,7,3,7, man014.jpg, cue_3.jpg,3,0.8422,1
2,1,8,1,8,4,14, man024.jpg, cue_4.jpg,4,1.0966,1
2,1,9,1,9,3,158, man209.jpg, cue_3.jpg,3,1.2266,1
2,1,10,1,10,1,62, man091.jpg, cue_1.jpg,1,0.9353,1
2,1,11,1,11,2,154, man205.jpg, cue_2.jpg,2,0.6874,1
2,1,12,1,12,4,208, man287.jpg, cue_4.jpg,3,0.7554,0
2,1,13,1,13,3,66, man095.jpg, cue_3.jpg,1,1.05,0
2,1,14,1,14,4,31, man050.jpg, cue_4.jpg,2,0.8516,0
2,1,15,1,15,1,124, man166.jpg, cue_1.jpg,3,0.8858,0
2,1,16,1,16,3,229, man315.jpg, cue_3.jpg,2,0.8696,0
2,1,17,1,17,2,235, man328.jpg, cue_2.jpg,1,1.2722,0
2,1,18,1,18,1,18, man031.jpg, cue_1.jpg,1,1.0971,1
2,1,19,1,19,1,139, man185.jpg, cue_1.jpg,1,0.7945,1
2,1,20,1,20,2,128, man170.jpg, cue_2.jpg,3,0.8734,0
2,1,21,1,21,3,231, man321.jpg, cue_3.jpg,1,1.8668,0
2,1,22,1,22,2,236, man329.jpg, cue_2.jpg,1,1.5223,0
2,1,23,1,23,1,227, man313.jpg, cue_1.jpg,4,1.1765,0
2,1,24,1,24,1,77, man109.jpg, cue_1.jpg,1,0.9734,1
2,1,25,1,25,1,219, man304.jpg, cue_1.jpg,3,0.8845,0
2,1,26,1,26,2,228, man314.jpg, cue_2.jpg,2,1.3187,1
2,1,27,1,27,1,130, man172.jpg, cue_1.jpg,1,1.423,1
2,1,28,1,28,2,42, man063.jpg, cue_2.jpg,4,0.9485,0
2,1,29,1,29,4,163, man217.jpg, cue_4.jpg,4,0.8339,1
2,1,30,1,30,3,104, man141.jpg, cue_3.jpg,3,1.0857,1
2,1,31,1,31,3,150, man199.jpg, cue_3.jpg,3,0.9456,1
2,1,32,1,32,1,194, man262.jpg, cue_1.jpg,1,0.9061,1
2,1,33,1,33,3,98, man134.jpg, cue_3.jpg,3,1.0928,1
2,1,34,1,34,4,85, man118.jpg, cue_4.jpg,4,1.1425,1
2,1,35,1,35,2,63, man092.jpg, cue_2.jpg,2,1.2071,1
2,1,36,1,36,3,94, man129.jpg, cue_3.jpg,3,1.0459,1
2,1,37,1,37,3,91, man125.jpg, cue_3.jpg,4,1.5294,0
2,1,38,1,38,3,168, man229.jpg, cue_3.jpg,3,1.1028,1
2,1,39,1,39,3,8, man015.jpg, cue_3.jpg,3,1.1041,1
2,1,40,1,40,4,142, man188.jpg, cue_4.jpg,1,2.3222,0
2,1,41,1,41,1,34, man055.jpg, cue_1.jpg,1,0.7593,1
2,1,42,1,42,4,190, man257.jpg, cue_4.jpg,3,2.1032,0
2,1,43,1,43,1,146, man193.jpg, cue_1.jpg,2,2.4215,0
2,1,44,1,44,1,24, man040.jpg, cue_1.jpg,2,0.8537,0
2,1,45,1,45,2,215, man299.jpg, cue_2.jpg,2,0.7441,1
2,1,46,1,46,1,103, man139.jpg, cue_1.jpg,3,1.737,0
2,1,47,1,47,3,207, man284.jpg, cue_3.jpg,4,1.094,0
2,1,48,1,48,2,157, man208.jpg, cue_2.jpg,2,1.1823,1
2,1,49,1,49,2,201, man277.jpg, cue_2.jpg,3,1.0209,0
2,1,50,1,50,4,184, man249.jpg, cue_4.jpg,2,0.8397,0
2,1,51,1,51,3,118, man160.jpg, cue_3.jpg,1,1.6426,0
2,1,52,1,52,2,84, man117.jpg, cue_2.jpg,2,1.1479,1
2,1,53,1,53,1,5, man010.jpg, cue_1.jpg,1,1.4528,1
2,1,54,1,54,1,140, man186.jpg, cue_1.jpg,1,0.8479,1
2,1,55,1,55,4,178, man242.jpg, cue_4.jpg,4,1.02,1
2,1,56,1,56,4,78, man110.jpg, cue_4.jpg,3,1.0096,0
2,1,57,1,57,3,136, man182.jpg, cue_3.jpg,1,1.3081,0
2,1,58,1,58,4,147, man196.jpg, cue_4.jpg,4,2.4765,1
2,1,59,1,59,4,114, man156.jpg, cue_4.jpg,2,0.8691,0
2,1,60,1,60,2,133, man178.jpg, cue_2.jpg,3,0.9346,0
2,1,61,1,61,1,166, man223.jpg, cue_1.jpg,2,1.5091,0
2,1,62,1,62,2,51, man075.jpg, cue_2.jpg,3,1.1009,0
2,1,63,1,63,4,174, man237.jpg, cue_4.jpg,2,0.7082,0
2,1,64,1,64,3,110, man152.jpg, cue_3.jpg,3,1.2615,1
2,1,65,1,65,4,82, man114.jpg, cue_4.jpg,4,1.4486,1
2,1,66,1,66,2,52, man076.jpg, cue_2.jpg,2,1.3724,1
2,1,67,1,67,3,101, man137.jpg, cue_3.jpg,3,0.9455,1
2,1,68,1,68,3,44, man066.jpg, cue_3.jpg,3,0.9703,1
2,1,69,1,69,2,87, man121.jpg, cue_2.jpg,1,1.2023,0
2,1,70,1,70,1,90, man124.jpg, cue_1.jpg,2,1.3972,0
2,1,71,1,71,1,137, man183.jpg, cue_1.jpg,3,0.9296,0
2,1,72,1,72,4,180, man245.jpg, cue_4.jpg,4,0.8971,1
2,1,73,1,73,1,86, man120.jpg, cue_1.jpg,2,0.9077,0
2,1,74,1,74,2,73, man105.jpg, cue_2.jpg,3,2.187,0
2,1,75,1,75,1,111, man153.jpg, cue_1.jpg,3,0.9021,0
2,1,76,1,76,4,60, man088.jpg, cue_4.jpg,1,1.8626,0
2,1,77,1,77,3,169, man230.jpg, cue_3.jpg,2,0.9263,0
2,1,78,1,78,4,12, man022.jpg, cue_4.jpg,2,0.8936,0
2,1,79,1,79,4,200, man276.jpg, cue_4.jpg,4,0.7822,1
2,1,80,1,80,2,122, man164.jpg, cue_2.jpg,2,1.1969,1
2,1,81,2,1,2,63, man092.jpg, cue_2.jpg,2,1.1149,1
2,1,82,2,2,3,168, man229.jpg, cue_3.jpg,3,0.7955,1
2,1,83,2,3,2,235, man328.jpg, cue_2.jpg,2,0.7777,1
2,1,84,2,4,2,228, man314.jpg, cue_2.jpg,2,0.8403,1
2,1,85,2,5,2,1, man002.jpg, cue_2.jpg,2,0.6775,1
2,1,86,2,6,4,163, man217.jpg, cue_4.jpg,4,0.6812,1
2,1,87,2,7,2,128, man170.jpg, cue_2.jpg,3,1.0689,0
2,1,88,2,8,4,31, man050.jpg, cue_4.jpg,4,0.7905,1
2,1,89,2,9,2,154, man205.jpg, cue_2.jpg,2,0.6298,1
2,1,90,2,10,3,101, man137.jpg, cue_3.jpg,3,0.7467,1
2,1,91,2,11,2,52, man076.jpg, cue_2.jpg,2,0.684,1
2,1,92,2,12,1,111, man153.jpg, cue_1.jpg,4,1.488,0
2,1,93,2,13,4,78, man110.jpg, cue_4.jpg,4,0.7439,1
2,1,94,2,14,3,110, man152.jpg, cue_3.jpg,3,1.1607,1
2,1,95,2,15,1,140, man186.jpg, cue_1.jpg,1,0.9996,1
2,1,96,2,16,4,190, man257.jpg, cue_4.jpg,4,0.7979,1
2,1,97,2,17,3,94, man129.jpg, cue_3.jpg,3,0.9725,1
2,1,98,2,18,3,158, man209.jpg, cue_3.jpg,3,0.7397,1
2,1,99,2,19,3,229, man315.jpg, cue_3.jpg,3,1.8443,1
2,1,100,2,20,1,62, man091.jpg, cue_1.jpg,1,0.7602,1
2,1,101,2,21,1,90, man124.jpg, cue_1.jpg,1,1.3677,1
2,1,102,2,22,3,7, man014.jpg, cue_3.jpg,3,0.7187,1
2,1,103,2,23,2,157, man208.jpg, cue_2.jpg,2,0.7846,1
2,1,104,2,24,2,84, man117.jpg, cue_2.jpg,2,0.8796,1
2,1,105,2,25,2,39, man060.jpg, cue_2.jpg,2,1.1634,1
2,1,106,2,26,3,150, man199.jpg, cue_3.jpg,3,0.9063,1
2,1,107,2,27,3,169, man230.jpg, cue_3.jpg,3,0.8213,1
2,1,108,2,28,2,99, man135.jpg, cue_2.jpg,2,0.7067,1
2,1,109,2,29,1,137, man183.jpg, cue_1.jpg,1,1.1416,1
2,1,110,2,30,2,73, man105.jpg, cue_2.jpg,2,0.8857,1
2,1,111,2,31,3,207, man284.jpg, cue_3.jpg,1,1.1691,0
2,1,112,2,32,4,208, man287.jpg, cue_4.jpg,4,0.79,1
2,1,113,2,33,2,215, man299.jpg, cue_2.jpg,2,0.6449,1
2,1,114,2,34,1,124, man166.jpg, cue_1.jpg,1,0.8099,1
2,1,115,2,35,3,136, man182.jpg, cue_3.jpg,3,1.4146,1
2,1,116,2,36,1,5, man010.jpg, cue_1.jpg,1,0.6517,1
2,1,117,2,37,1,146, man193.jpg, cue_1.jpg,1,0.8329,1
2,1,118,2,38,1,219, man304.jpg, cue_1.jpg,1,0.717,1
2,1,119,2,39,3,231, man321.jpg, cue_3.jpg,3,1.1202,1
2,1,120,2,40,2,87, man121.jpg, cue_2.jpg,2,0.9603,1
2,1,121,2,41,3,8, man015.jpg, cue_3.jpg,3,1.7989,1
2,1,122,2,42,1,194, man262.jpg, cue_1.jpg,1,0.7165,1
2,1,123,2,43,3,104, man141.jpg, cue_3.jpg,3,1.0713,1
2,1,124,2,44,1,166, man223.jpg, cue_1.jpg,1,0.7858,1
2,1,125,2,45,3,118, man160.jpg, cue_3.jpg,3,1.1373,1
2,1,126,2,46,4,180, man245.jpg, cue_4.jpg,4,0.6909,1
2,1,127,2,47,4,114, man156.jpg, cue_4.jpg,4,1.1415,1
2,1,128,2,48,1,77, man109.jpg, cue_1.jpg,1,0.5992,1
2,1,129,2,49,2,42, man063.jpg, cue_2.jpg,2,1.1658,1
2,1,130,2,50,1,130, man172.jpg, cue_1.jpg,1,0.8916,1
2,1,131,2,51,4,82, man114.jpg, cue_4.jpg,4,0.792,1
2,1,132,2,52,2,51, man075.jpg, cue_2.jpg,2,1.2707,1
2,1,133,2,53,4,174, man237.jpg, cue_4.jpg,4,0.8981,1
2,1,134,2,54,4,178, man242.jpg, cue_4.jpg,4,0.6524,1
2,1,135,2,55,1,86, man120.jpg, cue_1.jpg,3,0.9926,0
2,1,136,2,56,4,14, man024.jpg, cue_4.jpg,4,0.7971,1
2,1,137,2,57,3,44, man066.jpg, cue_3.jpg,3,0.7478,1
2,1,138,2,58,1,24, man040.jpg, cue_1.jpg,1,0.7158,1
2,1,139,2,59,4,147, man196.jpg, cue_4.jpg,4,1.3424,1
2,1,140,2,60,3,98, man134.jpg, cue_3.jpg,3,0.6944,1
2,1,141,2,61,3,16, man027.jpg, cue_3.jpg,3,0.968,1
2,1,142,2,62,1,103, man139.jpg, cue_1.jpg,1,1.169,1
2,1,143,2,63,1,34, man055.jpg, cue_1.jpg,1,0.6237,1
2,1,144,2,64,4,85, man118.jpg, cue_4.jpg,4,0.6622,1
2,1,145,2,65,1,18, man031.jpg, cue_1.jpg,1,0.9072,1
2,1,146,2,66,1,139, man185.jpg, cue_1.jpg,1,0.5973,1
2,1,147,2,67,4,184, man249.jpg, cue_4.jpg,4,1.2278,1
2,1,148,2,68,2,133, man178.jpg, cue_2.jpg,2,0.7452,1
2,1,149,2,69,4,4, man007.jpg, cue_4.jpg,4,0.8094,1
2,1,150,2,70,2,122, man164.jpg, cue_2.jpg,2,1.7683,1
2,1,151,2,71,4,142, man188.jpg, cue_4.jpg,1,1.3416,0
2,1,152,2,72,3,91, man125.jpg, cue_3.jpg,3,0.8748,1
2,1,153,2,73,2,201, man277.jpg, cue_2.jpg,2,1.1427,1
2,1,154,2,74,3,66, man095.jpg, cue_3.jpg,1,1.495,0
2,1,155,2,75,2,236, man329.jpg, cue_2.jpg,2,1.6302,1
2,1,156,2,76,4,200, man276.jpg, cue_4.jpg,4,0.9076,1
2,1,157,2,77,4,115, man157.jpg, cue_4.jpg,1,1.8453,0
2,1,158,2,78,4,12, man022.jpg, cue_4.jpg,2,1.0864,0
2,1,159,2,79,4,60, man088.jpg, cue_4.jpg,4,1.2552,1
2,1,160,2,80,1,227, man313.jpg, cue_1.jpg,1,0.8028,1
2,1,161,3,1,3,231, man321.jpg, cue_3.jpg,3,2.2425,1
2,1,162,3,2,4,4, man007.jpg, cue_4.jpg,4,0.7251,1
2,1,163,3,3,2,51, man075.jpg, cue_2.jpg,2,0.823,1
2,1,164,3,4,4,60, man088.jpg, cue_4.jpg,4,0.8655,1
2,1,165,3,5,4,190, man257.jpg, cue_4.jpg,4,0.7201,1
2,1,166,3,6,4,14, man024.jpg, cue_4.jpg,4,0.6901,1
2,1,167,3,7,2,157, man208.jpg, cue_2.jpg,2,1.0454,1
2,1,168,3,8,1,166, man223.jpg, cue_1.jpg,1,0.6821,1
2,1,169,3,9,4,180, man245.jpg, cue_4.jpg,4,0.6214,1
2,1,170,3,10,3,94, man129.jpg, cue_3.jpg,3,0.5958,1
2,1,171,3,11,2,84, man117.jpg, cue_2.jpg,2,0.7785,1
2,1,172,3,12,3,7, man014.jpg, cue_3.jpg,3,0.5706,1
2,1,173,3,13,4,147, man196.jpg, cue_4.jpg,4,1.1064,1
2,1,174,3,14,2,236, man329.jpg, cue_2.jpg,2,0.8045,1
2,1,175,3,15,1,111, man153.jpg, cue_1.jpg,1,0.723,1
2,1,176,3,16,3,104, man141.jpg, cue_3.jpg,3,0.692,1
2,1,177,3,17,1,18, man031.jpg, cue_1.jpg,1,0.6162,1
2,1,178,3,18,3,168, man229.jpg, cue_3.jpg,3,1.1017,1
2,1,179,3,19,4,178, man242.jpg, cue_4.jpg,4,0.6241,1
2,1,180,3,20,2,39, man060.jpg, cue_2.jpg,2,0.5818,1
2,1,181,3,21,3,98, man134.jpg, cue_3.jpg,3,0.5899,1
2,1,182,3,22,3,136, man182.jpg, cue_3.jpg,3,0.918,1
2,1,183,3,23,1,137, man183.jpg, cue_1.jpg,1,1.136,1
2,1,184,3,24,3,44, man066.jpg, cue_3.jpg,3,0.6241,1
2,1,185,3,25,3,8, man015.jpg, cue_3.jpg,3,0.855,1
2,1,186,3,26,4,142, man188.jpg, cue_4.jpg,4,0.7998,1
2,1,187,3,27,1,219, man304.jpg, cue_1.jpg,1,0.6896,1
2,1,188,3,28,2,63, man092.jpg, cue_2.jpg,2,0.6928,1
2,1,189,3,29,2,201, man277.jpg, cue_2.jpg,2,0.6789,1
2,1,190,3,30,4,114, man156.jpg, cue_4.jpg,4,0.6198,1
2,1,191,3,31,4,31, man050.jpg, cue_4.jpg,4,1.0896,1
2,1,192,3,32,1,5, man010.jpg, cue_1.jpg,1,1.0437,1
2,1,193,3,33,2,87, man121.jpg, cue_2.jpg,2,0.7119,1
2,1,194,3,34,2,154, man205.jpg, cue_2.jpg,2,0.7141,1
2,1,195,3,35,3,158, man209.jpg, cue_3.jpg,3,1.6449,1
2,1,196,3,36,3,229, man315.jpg, cue_3.jpg,3,1.7668,1
2,1,197,3,37,4,184, man249.jpg, cue_4.jpg,4,1.2453,1
2,1,198,3,38,2,1, man002.jpg, cue_2.jpg,2,0.8247,1
2,1,199,3,39,4,115, man157.jpg, cue_4.jpg,4,0.8222,1
2,1,200,3,40,3,118, man160.jpg, cue_3.jpg,3,1.012,1
2,1,201,3,41,1,140, man186.jpg, cue_1.jpg,1,0.6818,1
2,1,202,3,42,4,163, man217.jpg, cue_4.jpg,4,0.8778,1
2,1,203,3,43,4,82, man114.jpg, cue_4.jpg,4,1.0003,1
2,1,204,3,44,1,24, man040.jpg, cue_1.jpg,1,0.8946,1
2,1,205,3,45,2,215, man299.jpg, cue_2.jpg,2,1.3844,1
2,1,206,3,46,4,200, man276.jpg, cue_4.jpg,4,1.1659,1
2,1,207,3,47,2,133, man178.jpg, cue_2.jpg,2,1.2779,1
2,1,208,3,48,2,52, man076.jpg, cue_2.jpg,2,0.7114,1
2,1,209,3,49,3,66, man095.jpg, cue_3.jpg,3,1.2724,1
2,1,210,3,50,1,86, man120.jpg, cue_1.jpg,1,0.9167,1
2,1,211,3,51,4,85, man118.jpg, cue_4.jpg,4,0.7189,1
2,1,212,3,52,2,122, man164.jpg, cue_2.jpg,2,0.6232,1
2,1,213,3,53,2,99, man135.jpg, cue_2.jpg,2,0.8554,1
2,1,214,3,54,3,110, man152.jpg, cue_3.jpg,3,0.6904,1
2,1,215,3,55,1,34, man055.jpg, cue_1.jpg,1,0.6626,1
2,1,216,3,56,4,78, man110.jpg, cue_4.jpg,4,0.5873,1
2,1,217,3,57,2,128, man170.jpg, cue_2.jpg,2,1.7158,1
2,1,218,3,58,2,73, man105.jpg, cue_2.jpg,2,1.1309,1
2,1,219,3,59,3,207, man284.jpg, cue_3.jpg,3,0.988,1
2,1,220,3,60,4,174, man237.jpg, cue_4.jpg,4,0.7871,1
2,1,221,3,61,3,101, man137.jpg, cue_3.jpg,3,0.5761,1
2,1,222,3,62,1,139, man185.jpg, cue_1.jpg,1,0.777,1
2,1,223,3,63,1,77, man109.jpg, cue_1.jpg,1,0.6485,1
2,1,224,3,64,1,103, man139.jpg, cue_1.jpg,1,0.6532,1
2,1,225,3,65,1,124, man166.jpg, cue_1.jpg,1,0.5946,1
2,1,226,3,66,1,146, man193.jpg, cue_1.jpg,1,0.7141,1
2,1,227,3,67,3,169, man230.jpg, cue_3.jpg,3,0.6514,1
2,1,228,3,68,1,90, man124.jpg, cue_1.jpg,1,0.752,1
2,1,229,3,69,1,194, man262.jpg, cue_1.jpg,1,0.6261,1
2,1,230,3,70,3,16, man027.jpg, cue_3.jpg,3,0.7284,1
2,1,231,3,71,2,228, man314.jpg, cue_2.jpg,2,0.6015,1
2,1,232,3,72,3,150, man199.jpg, cue_3.jpg,3,0.8806,1
2,1,233,3,73,4,208, man287.jpg, cue_4.jpg,4,0.5872,1
2,1,234,3,74,1,227, man313.jpg, cue_1.jpg,1,0.6275,1
2,1,235,3,75,4,12, man022.jpg, cue_4.jpg,4,0.8091,1
2,1,236,3,76,2,42, man063.jpg, cue_2.jpg,2,1.4956,1
2,1,237,3,77,3,91, man125.jpg, cue_3.jpg,3,0.6495,1
2,1,238,3,78,1,130, man172.jpg, cue_1.jpg,1,0.6695,1
2,1,239,3,79,1,62, man091.jpg, cue_1.jpg,1,0.6901,1
2,1,240,3,80,2,235, man328.jpg, cue_2.jpg,2,0.6615,1
2,1,241,4,1,3,158, man209.jpg, cue_3.jpg,3,0.8351,1
2,1,242,4,2,4,208, man287.jpg, cue_4.jpg,4,0.6235,1
2,1,243,4,3,4,142, man188.jpg, cue_4.jpg,4,0.5987,1
2,1,244,4,4,2,99, man135.jpg, cue_2.jpg,2,0.5887,1
2,1,245,4,5,1,140, man186.jpg, cue_1.jpg,1,0.629,1
2,1,246,4,6,1,124, man166.jpg, cue_1.jpg,1,0.6507,1
2,1,247,4,7,1,5, man010.jpg, cue_1.jpg,1,0.6879,1
2,1,248,4,8,2,52, man076.jpg, cue_2.jpg,2,0.6594,1
2,1,249,4,9,3,98, man134.jpg, cue_3.jpg,3,0.5845,1
2,1,250,4,10,2,236, man329.jpg, cue_2.jpg,2,0.6561,1
2,1,251,4,11,1,86, man120.jpg, cue_1.jpg,1,0.8523,1
2,1,252,4,12,4,78, man110.jpg, cue_4.jpg,4,0.6734,1
2,1,253,4,13,1,194, man262.jpg, cue_1.jpg,1,1.1249,1
2,1,254,4,14,1,77, man109.jpg, cue_1.jpg,1,0.5343,1
2,1,255,4,15,4,190, man257.jpg, cue_4.jpg,4,1.3266,1
2,1,256,4,16,3,207, man284.jpg, cue_3.jpg,3,0.7125,1
2,1,257,4,17,2,1, man002.jpg, cue_2.jpg,2,0.6506,1
2,1,258,4,18,1,62, man091.jpg, cue_1.jpg,1,0.5742,1
2,1,259,4,19,3,104, man141.jpg, cue_3.jpg,3,0.6465,1
2,1,260,4,20,3,66, man095.jpg, cue_3.jpg,3,0.7476,1
2,1,261,4,21,4,147, man196.jpg, cue_4.jpg,4,0.6517,1
2,1,262,4,22,4,14, man024.jpg, cue_4.jpg,4,0.7849,1
2,1,263,4,23,3,118, man160.jpg, cue_3.jpg,3,0.7206,1
2,1,264,4,24,3,101, man137.jpg, cue_3.jpg,3,0.5941,1
2,1,265,4,25,1,90, man124.jpg, cue_1.jpg,1,0.7443,1
2,1,266,4,26,3,7, man014.jpg, cue_3.jpg,3,0.6506,1
2,1,267,4,27,1,166, man223.jpg, cue_1.jpg,1,0.6547,1
2,1,268,4,28,3,91, man125.jpg, cue_3.jpg,3,0.6275,1
2,1,269,4,29,4,184, man249.jpg, cue_4.jpg,4,0.8428,1
2,1,270,4,30,4,4, man007.jpg, cue_4.jpg,4,0.6635,1
2,1,271,4,31,2,39, man060.jpg, cue_2.jpg,2,0.6674,1
2,1,272,4,32,4,12, man022.jpg, cue_4.jpg,4,1.1361,1
2,1,273,4,33,3,231, man321.jpg, cue_3.jpg,3,1.424,1
2,1,274,4,34,4,174, man237.jpg, cue_4.jpg,4,0.7243,1
2,1,275,4,35,1,24, man040.jpg, cue_1.jpg,1,0.599,1
2,1,276,4,36,4,178, man242.jpg, cue_4.jpg,4,0.6542,1
2,1,277,4,37,2,201, man277.jpg, cue_2.jpg,2,0.6109,1
2,1,278,4,38,2,122, man164.jpg, cue_2.jpg,2,0.6177,1
2,1,279,4,39,2,84, man117.jpg, cue_2.jpg,2,0.6871,1
2,1,280,4,40,3,16, man027.jpg, cue_3.jpg,3,0.7042,1
2,1,281,4,41,2,228, man314.jpg, cue_2.jpg,2,0.6132,1
2,1,282,4,42,4,180, man245.jpg, cue_4.jpg,4,0.6192,1
2,1,283,4,43,2,154, man205.jpg, cue_2.jpg,2,0.561,1
2,1,284,4,44,2,51, man075.jpg, cue_2.jpg,2,0.6501,1
2,1,285,4,45,4,115, man157.jpg, cue_4.jpg,4,1.2316,1
2,1,286,4,46,3,94, man129.jpg, cue_3.jpg,3,0.6517,1
2,1,287,4,47,1,227, man313.jpg, cue_1.jpg,1,0.6234,1
2,1,288,4,48,4,60, man088.jpg, cue_4.jpg,4,0.6634,1
2,1,289,4,49,2,42, man063.jpg, cue_2.jpg,2,0.8109,1
2,1,290,4,50,1,130, man172.jpg, cue_1.jpg,1,0.6502,1
2,1,291,4,51,1,146, man193.jpg, cue_1.jpg,1,0.6862,1
2,1,292,4,52,3,8, man015.jpg, cue_3.jpg,3,0.8824,1
2,1,293,4,53,3,229, man315.jpg, cue_3.jpg,3,0.8591,1
2,1,294,4,54,2,63, man092.jpg, cue_2.jpg,2,0.5848,1
2,1,295,4,55,1,18, man031.jpg, cue_1.jpg,1,0.6239,1
2,1,296,4,56,2,87, man121.jpg, cue_2.jpg,2,0.6951,1
2,1,297,4,57,3,169, man230.jpg, cue_3.jpg,3,0.6181,1
2,1,298,4,58,4,114, man156.jpg, cue_4.jpg,4,0.6884,1
2,1,299,4,59,4,82, man114.jpg, cue_4.jpg,4,0.8326,1
2,1,300,4,60,2,128, man170.jpg, cue_2.jpg,2,1.0561,1
2,1,301,4,61,2,215, man299.jpg, cue_2.jpg,2,0.5794,1
2,1,302,4,62,1,111, man153.jpg, cue_1.jpg,1,0.7145,1
2,1,303,4,63,2,235, man328.jpg, cue_2.jpg,2,0.7486,1
2,1,304,4,64,4,200, man276.jpg, cue_4.jpg,4,1.1006,1
2,1,305,4,65,3,150, man199.jpg, cue_3.jpg,3,0.8476,1
2,1,306,4,66,1,139, man185.jpg, cue_1.jpg,1,0.749,1
2,1,307,4,67,4,163, man217.jpg, cue_4.jpg,4,0.6219,1
2,1,308,4,68,4,85, man118.jpg, cue_4.jpg,4,0.6268,1
2,1,309,4,69,3,168, man229.jpg, cue_3.jpg,3,0.7296,1
2,1,310,4,70,2,157, man208.jpg, cue_2.jpg,2,0.5869,1
2,1,311,4,71,1,137, man183.jpg, cue_1.jpg,1,0.8177,1
2,1,312,4,72,2,73, man105.jpg, cue_2.jpg,2,0.8316,1
2,1,313,4,73,2,133, man178.jpg, cue_2.jpg,2,0.7326,1
2,1,314,4,74,3,44, man066.jpg, cue_3.jpg,3,0.6542,1
2,1,315,4,75,4,31, man050.jpg, cue_4.jpg,4,0.8827,1
2,1,316,4,76,1,103, man139.jpg, cue_1.jpg,1,0.7504,1
2,1,317,4,77,1,34, man055.jpg, cue_1.jpg,1,0.6225,1
2,1,318,4,78,3,136, man182.jpg, cue_3.jpg,3,0.7576,1
2,1,319,4,79,1,219, man304.jpg, cue_1.jpg,1,0.6943,1
2,1,320,4,80,3,110, man152.jpg, cue_3.jpg,3,0.585,1
3,1,2,1,2,1,49, man072.jpg, cue_2.jpg,3,1.4542,0
3,1,3,1,3,1,27, man044.jpg, cue_2.jpg,2,1.2255,0
3,1,5,1,5,1,211, man295.jpg, cue_2.jpg,2,1.7309,0
3,1,8,1,8,1,35, man056.jpg, cue_2.jpg,4,1.5433,0
3,1,13,1,13,1,13, man023.jpg, cue_2.jpg,1,0.8311,1
3,1,22,1,22,1,155, man206.jpg, cue_2.jpg,1,1.2463,1
3,1,26,1,26,1,58, man085.jpg, cue_2.jpg,4,1.3586,0
3,1,34,1,34,1,102, man138.jpg, cue_2.jpg,1,0.9028,1
3,1,38,1,38,1,70, man101.jpg, cue_2.jpg,2,1.052,0
3,1,44,1,44,1,192, man259.jpg, cue_2.jpg,1,1.1041,1
3,1,45,1,45,1,186, man252.jpg, cue_2.jpg,1,1.3777,1
3,1,51,1,51,1,151, man201.jpg, cue_2.jpg,4,0.9681,0
3,1,53,1,53,1,232, man322.jpg, cue_2.jpg,1,1.0717,1
3,1,55,1,55,1,125, man167.jpg, cue_2.jpg,1,1.7144,1
3,1,56,1,56,1,213, man297.jpg, cue_2.jpg,3,1.0358,0
3,1,57,1,57,1,206, man283.jpg, cue_2.jpg,4,1.1583,0
3,1,66,1,66,1,141, man187.jpg, cue_2.jpg,1,1.4816,1
3,1,73,1,73,1,34, man055.jpg, cue_2.jpg,1,0.8413,1
3,1,75,1,75,1,193, man260.jpg, cue_2.jpg,2,1.28,0
3,1,80,1,80,1,7, man014.jpg, cue_2.jpg,1,0.8967,1
3,1,1,1,1,2,236, man329.jpg, cue_3.jpg,2,1.7201,1
3,1,11,1,11,2,65, man094.jpg, cue_3.jpg,2,0.9172,1
3,1,16,1,16,2,170, man231.jpg, cue_3.jpg,2,0.8697,1
3,1,18,1,18,2,86, man120.jpg, cue_3.jpg,2,0.7589,1
3,1,23,1,23,2,94, man129.jpg, cue_3.jpg,3,1.1302,0
3,1,25,1,25,2,121, man163.jpg, cue_3.jpg,2,1.1669,1
3,1,27,1,27,2,87, man121.jpg, cue_3.jpg,3,2.0754,0
3,1,31,1,31,2,80, man112.jpg, cue_3.jpg,2,1.4269,1
3,1,41,1,41,2,88, man122.jpg, cue_3.jpg,2,0.972,1
3,1,42,1,42,2,179, man244.jpg, cue_3.jpg,2,0.723,1
3,1,43,1,43,2,165, man222.jpg, cue_3.jpg,3,1.4296,0
3,1,47,1,47,2,158, man209.jpg, cue_3.jpg,2,1.3517,1
3,1,50,1,50,2,163, man217.jpg, cue_3.jpg,2,0.7768,1
3,1,52,1,52,2,127, man169.jpg, cue_3.jpg,2,2.4373,1
3,1,59,1,59,2,1, man002.jpg, cue_3.jpg,3,0.9723,0
3,1,61,1,61,2,57, man084.jpg, cue_3.jpg,2,0.872,1
3,1,62,1,62,2,119, man161.jpg, cue_3.jpg,2,1.0759,1
3,1,63,1,63,2,144, man190.jpg, cue_3.jpg,4,1.4317,0
3,1,64,1,64,2,202, man278.jpg, cue_3.jpg,4,1.2494,0
3,1,65,1,65,2,225, man311.jpg, cue_3.jpg,1,1.1078,0
3,1,4,1,4,3,54, man078.jpg, cue_4.jpg,3,1.3547,1
3,1,6,1,6,3,82, man114.jpg, cue_4.jpg,3,0.911,1
3,1,7,1,7,3,9, man016.jpg, cue_4.jpg,3,1.2255,1
3,1,9,1,9,3,218, man303.jpg, cue_4.jpg,2,1.0846,0
3,1,12,1,12,3,197, man271.jpg, cue_4.jpg,3,0.7844,1
3,1,19,1,19,3,124, man166.jpg, cue_4.jpg,2,1.3193,0
3,1,20,1,20,3,134, man179.jpg, cue_4.jpg,3,0.9028,1
3,1,21,1,21,3,66, man095.jpg, cue_4.jpg,2,0.9764,0
3,1,24,1,24,3,5, man010.jpg, cue_4.jpg,4,1.3117,0
3,1,33,1,33,3,18, man031.jpg, cue_4.jpg,3,0.8255,1
3,1,35,1,35,3,90, man124.jpg, cue_4.jpg,3,1.0718,1
3,1,54,1,54,3,216, man301.jpg, cue_4.jpg,3,0.7875,1
3,1,60,1,60,3,10, man017.jpg, cue_4.jpg,3,1.5777,1
3,1,68,1,68,3,14, man024.jpg, cue_4.jpg,3,0.9198,1
3,1,69,1,69,3,98, man134.jpg, cue_4.jpg,2,0.9293,0
3,1,70,1,70,3,46, man068.jpg, cue_4.jpg,3,0.927,1
3,1,71,1,71,3,123, man165.jpg, cue_4.jpg,1,0.9045,0
3,1,76,1,76,3,36, man057.jpg, cue_4.jpg,3,0.7663,1
3,1,77,1,77,3,201, man277.jpg, cue_4.jpg,4,1.1518,0
3,1,78,1,78,3,209, man289.jpg, cue_4.jpg,3,1.3806,1
3,1,10,1,10,4,115, man157.jpg, cue_1.jpg,4,1.4927,1
3,1,14,1,14,4,85, man118.jpg, cue_1.jpg,4,0.8435,1
3,1,15,1,15,4,189, man255.jpg, cue_1.jpg,2,0.9526,0
3,1,17,1,17,4,128, man170.jpg, cue_1.jpg,4,1.4262,1
3,1,28,1,28,4,84, man117.jpg, cue_1.jpg,4,1.067,1
3,1,29,1,29,4,200, man276.jpg, cue_1.jpg,4,1.0696,1
3,1,30,1,30,4,120, man162.jpg, cue_1.jpg,4,0.7522,1
3,1,32,1,32,4,208, man287.jpg, cue_1.jpg,3,0.8549,0
3,1,36,1,36,4,222, man307.jpg, cue_1.jpg,4,1.0279,1
3,1,37,1,37,4,149, man198.jpg, cue_1.jpg,4,1.0641,1
3,1,39,1,39,4,157, man208.jpg, cue_1.jpg,3,1.7333,0
3,1,40,1,40,4,171, man233.jpg, cue_1.jpg,4,0.9151,1
3,1,46,1,46,4,129, man171.jpg, cue_1.jpg,4,1.1277,1
3,1,48,1,48,4,188, man254.jpg, cue_1.jpg,4,1.2475,1
3,1,49,1,49,4,207, man284.jpg, cue_1.jpg,4,0.8099,1
3,1,58,1,58,4,132, man177.jpg, cue_1.jpg,4,1.1162,1
3,1,67,1,67,4,137, man183.jpg, cue_1.jpg,4,0.9089,1
3,1,72,1,72,4,75, man107.jpg, cue_1.jpg,4,1.162,1
3,1,74,1,74,4,83, man115.jpg, cue_1.jpg,4,0.9183,1
3,1,79,1,79,4,67, man096.jpg, cue_1.jpg,3,1.1628,0
3,1,89,2,9,1,7, man014.jpg, cue_2.jpg,1,0.6959,1
3,1,93,2,13,1,35, man056.jpg, cue_2.jpg,1,0.8411,1
3,1,95,2,15,1,49, man072.jpg, cue_2.jpg,3,1.2697,0
3,1,97,2,17,1,206, man283.jpg, cue_2.jpg,1,0.6499,1
3,1,98,2,18,1,193, man260.jpg, cue_2.jpg,1,0.7829,1
3,1,100,2,20,1,102, man138.jpg, cue_2.jpg,4,1.5553,0
3,1,103,2,23,1,213, man297.jpg, cue_2.jpg,1,0.7425,1
3,1,108,2,28,1,141, man187.jpg, cue_2.jpg,1,1.1758,1
3,1,126,2,46,1,211, man295.jpg, cue_2.jpg,1,0.878,1
3,1,137,2,57,1,13, man023.jpg, cue_2.jpg,1,0.631,1
3,1,138,2,58,1,70, man101.jpg, cue_2.jpg,2,0.941,0
3,1,139,2,59,1,151, man201.jpg, cue_2.jpg,1,0.9882,1
3,1,140,2,60,1,34, man055.jpg, cue_2.jpg,1,0.6592,1
3,1,142,2,62,1,155, man206.jpg, cue_2.jpg,1,0.8012,1
3,1,145,2,65,1,186, man252.jpg, cue_2.jpg,1,0.6574,1
3,1,146,2,66,1,125, man167.jpg, cue_2.jpg,1,1.1734,1
3,1,154,2,74,1,232, man322.jpg, cue_2.jpg,1,0.8537,1
3,1,158,2,78,1,192, man259.jpg, cue_2.jpg,1,0.8359,1
3,1,159,2,79,1,58, man085.jpg, cue_2.jpg,1,0.8494,1
3,1,160,2,80,1,27, man044.jpg, cue_2.jpg,2,1.1665,0
3,1,81,2,1,2,179, man244.jpg, cue_3.jpg,2,1.044,1
3,1,82,2,2,2,158, man209.jpg, cue_3.jpg,2,0.6982,1
3,1,84,2,4,2,94, man129.jpg, cue_3.jpg,3,1.1473,0
3,1,87,2,7,2,225, man311.jpg, cue_3.jpg,2,0.7222,1
3,1,88,2,8,2,144, man190.jpg, cue_3.jpg,2,0.7258,1
3,1,92,2,12,2,80, man112.jpg, cue_3.jpg,2,1.3632,1
3,1,99,2,19,2,163, man217.jpg, cue_3.jpg,2,0.6382,1
3,1,110,2,30,2,170, man231.jpg, cue_3.jpg,2,0.8659,1
3,1,111,2,31,2,57, man084.jpg, cue_3.jpg,2,0.7508,1
3,1,112,2,32,2,65, man094.jpg, cue_3.jpg,2,0.7201,1
3,1,113,2,33,2,121, man163.jpg, cue_3.jpg,2,0.6247,1
3,1,115,2,35,2,202, man278.jpg, cue_3.jpg,2,1.2442,1
3,1,117,2,37,2,86, man120.jpg, cue_3.jpg,2,0.7136,1
3,1,118,2,38,2,1, man002.jpg, cue_3.jpg,2,0.6844,1
3,1,123,2,43,2,165, man222.jpg, cue_3.jpg,2,0.8205,1
3,1,125,2,45,2,127, man169.jpg, cue_3.jpg,2,0.7347,1
3,1,129,2,49,2,236, man329.jpg, cue_3.jpg,2,0.9725,1
3,1,132,2,52,2,119, man161.jpg, cue_3.jpg,2,0.8582,1
3,1,136,2,56,2,88, man122.jpg, cue_3.jpg,2,0.8259,1
3,1,143,2,63,2,87, man121.jpg, cue_3.jpg,2,0.7834,1
3,1,83,2,3,3,18, man031.jpg, cue_4.jpg,3,0.78,1
3,1,86,2,6,3,124, man166.jpg, cue_4.jpg,3,1.4562,1
3,1,102,2,22,3,218, man303.jpg, cue_4.jpg,3,0.5909,1
3,1,104,2,24,3,209, man289.jpg, cue_4.jpg,3,0.696,1
3,1,105,2,25,3,46, man068.jpg, cue_4.jpg,3,0.6506,1
3,1,109,2,29,3,216, man301.jpg, cue_4.jpg,1,1.7834,0
3,1,114,2,34,3,66, man095.jpg, cue_4.jpg,3,0.6479,1
3,1,120,2,40,3,90, man124.jpg, cue_4.jpg,3,0.6864,1
3,1,121,2,41,3,82, man114.jpg, cue_4.jpg,3,0.7223,1
3,1,122,2,42,3,5, man010.jpg, cue_4.jpg,3,1.5567,1
3,1,124,2,44,3,98, man134.jpg, cue_4.jpg,3,0.8507,1
3,1,127,2,47,3,36, man057.jpg, cue_4.jpg,3,1.1295,1
3,1,130,2,50,3,201, man277.jpg, cue_4.jpg,3,0.9156,1
3,1,134,2,54,3,123, man165.jpg, cue_4.jpg,1,0.8831,0
3,1,141,2,61,3,197, man271.jpg, cue_4.jpg,3,0.9192,1
3,1,150,2,70,3,10, man017.jpg, cue_4.jpg,3,0.751,1
3,1,151,2,71,3,54, man078.jpg, cue_4.jpg,3,1.0388,1
3,1,152,2,72,3,134, man179.jpg, cue_4.jpg,3,0.7719,1
3,1,155,2,75,3,9, man016.jpg, cue_4.jpg,3,0.8344,1
3,1,157,2,77,3,14, man024.jpg, cue_4.jpg,3,0.823,1
3,1,85,2,5,4,222, man307.jpg, cue_1.jpg,4,0.7849,1
3,1,90,2,10,4,207, man284.jpg, cue_1.jpg,4,0.9705,1
3,1,91,2,11,4,137, man183.jpg, cue_1.jpg,4,0.7379,1
3,1,94,2,14,4,129, man171.jpg, cue_1.jpg,4,0.7914,1
3,1,96,2,16,4,208, man287.jpg, cue_1.jpg,4,0.6955,1
3,1,101,2,21,4,75, man107.jpg, cue_1.jpg,4,0.9829,1
3,1,106,2,26,4,200, man276.jpg, cue_1.jpg,4,0.72,1
3,1,107,2,27,4,188, man254.jpg, cue_1.jpg,4,0.6251,1
3,1,116,2,36,4,84, man117.jpg, cue_1.jpg,4,0.7123,1
3,1,119,2,39,4,149, man198.jpg, cue_1.jpg,4,1.151,1
3,1,128,2,48,4,189, man255.jpg, cue_1.jpg,4,0.7464,1
3,1,131,2,51,4,171, man233.jpg, cue_1.jpg,2,1.0055,0
3,1,133,2,53,4,128, man170.jpg, cue_1.jpg,4,0.8537,1
3,1,135,2,55,4,67, man096.jpg, cue_1.jpg,4,1.3784,1
3,1,144,2,64,4,85, man118.jpg, cue_1.jpg,4,1.4864,1
3,1,147,2,67,4,157, man208.jpg, cue_1.jpg,1,1.6687,0
3,1,148,2,68,4,83, man115.jpg, cue_1.jpg,4,0.7728,1
3,1,149,2,69,4,115, man157.jpg, cue_1.jpg,4,2.0691,1
3,1,153,2,73,4,132, man177.jpg, cue_1.jpg,4,0.7242,1
3,1,156,2,76,4,120, man162.jpg, cue_1.jpg,4,0.5908,1
3,1,161,3,1,1,13, man023.jpg, cue_2.jpg,1,0.7933,1
3,1,163,3,3,1,49, man072.jpg, cue_2.jpg,1,0.7714,1
3,1,166,3,6,1,35, man056.jpg, cue_2.jpg,1,1.1309,1
3,1,181,3,21,1,206, man283.jpg, cue_2.jpg,1,0.6409,1
3,1,187,3,27,1,232, man322.jpg, cue_2.jpg,1,0.7042,1
3,1,189,3,29,1,211, man295.jpg, cue_2.jpg,1,0.6555,1
3,1,191,3,31,1,151, man201.jpg, cue_2.jpg,1,0.6818,1
3,1,193,3,33,1,155, man206.jpg, cue_2.jpg,1,0.6899,1
3,1,196,3,36,1,213, man297.jpg, cue_2.jpg,1,1.2016,1
3,1,206,3,46,1,7, man014.jpg, cue_2.jpg,1,0.7501,1
3,1,209,3,49,1,102, man138.jpg, cue_2.jpg,1,0.8721,1
3,1,220,3,60,1,141, man187.jpg, cue_2.jpg,4,1.7398,0
3,1,221,3,61,1,125, man167.jpg, cue_2.jpg,1,0.9218,1
3,1,222,3,62,1,34, man055.jpg, cue_2.jpg,1,0.6268,1
3,1,224,3,64,1,27, man044.jpg, cue_2.jpg,2,1.1989,0
3,1,228,3,68,1,70, man101.jpg, cue_2.jpg,1,0.7536,1
3,1,229,3,69,1,193, man260.jpg, cue_2.jpg,1,0.6421,1
3,1,232,3,72,1,58, man085.jpg, cue_2.jpg,1,0.7126,1
3,1,234,3,74,1,186, man252.jpg, cue_2.jpg,1,0.7551,1
3,1,236,3,76,1,192, man259.jpg, cue_2.jpg,1,0.7119,1
3,1,162,3,2,2,236, man329.jpg, cue_3.jpg,2,0.8715,1
3,1,171,3,11,2,121, man163.jpg, cue_3.jpg,2,0.8789,1
3,1,177,3,17,2,87, man121.jpg, cue_3.jpg,2,0.7112,1
3,1,179,3,19,2,119, man161.jpg, cue_3.jpg,2,1.6732,1
3,1,183,3,23,2,1, man002.jpg, cue_3.jpg,2,0.9405,1
3,1,194,3,34,2,170, man231.jpg, cue_3.jpg,2,0.63,1
3,1,195,3,35,2,86, man120.jpg, cue_3.jpg,2,0.6202,1
3,1,201,3,41,2,94, man129.jpg, cue_3.jpg,2,1.1207,1
3,1,202,3,42,2,163, man217.jpg, cue_3.jpg,2,0.6566,1
3,1,204,3,44,2,65, man094.jpg, cue_3.jpg,2,0.8265,1
3,1,213,3,53,2,202, man278.jpg, cue_3.jpg,2,0.8434,1
3,1,216,3,56,2,88, man122.jpg, cue_3.jpg,2,0.7257,1
3,1,217,3,57,2,165, man222.jpg, cue_3.jpg,2,0.8556,1
3,1,218,3,58,2,57, man084.jpg, cue_3.jpg,2,0.6437,1
3,1,219,3,59,2,127, man169.jpg, cue_3.jpg,2,0.6812,1
3,1,223,3,63,2,179, man244.jpg, cue_3.jpg,2,1.0006,1
3,1,225,3,65,2,158, man209.jpg, cue_3.jpg,2,0.6583,1
3,1,227,3,67,2,80, man112.jpg, cue_3.jpg,2,1.0038,1
3,1,233,3,73,2,225, man311.jpg, cue_3.jpg,2,0.9052,1
3,1,237,3,77,2,144, man190.jpg, cue_3.jpg,2,0.6497,1
3,1,164,3,4,3,82, man114.jpg, cue_4.jpg,3,1.3631,1
3,1,167,3,7,3,98, man134.jpg, cue_4.jpg,3,0.621,1
3,1,174,3,14,3,123, man165.jpg, cue_4.jpg,3,0.8497,1
3,1,175,3,15,3,9, man016.jpg, cue_4.jpg,3,0.7834,1
3,1,176,3,16,3,197, man271.jpg, cue_4.jpg,3,0.5589,1
3,1,186,3,26,3,216, man301.jpg, cue_4.jpg,3,0.7186,1
3,1,190,3,30,3,18, man031.jpg, cue_4.jpg,3,0.628,1
3,1,192,3,32,3,218, man303.jpg, cue_4.jpg,3,0.6372,1
3,1,197,3,37,3,209, man289.jpg, cue_4.jpg,3,0.6243,1
3,1,199,3,39,3,46, man068.jpg, cue_4.jpg,3,0.6514,1
3,1,200,3,40,3,5, man010.jpg, cue_4.jpg,3,0.7692,1
3,1,203,3,43,3,90, man124.jpg, cue_4.jpg,3,0.6461,1
3,1,205,3,45,3,134, man179.jpg, cue_4.jpg,3,0.6157,1
3,1,210,3,50,3,36, man057.jpg, cue_4.jpg,3,0.629,1
3,1,212,3,52,3,66, man095.jpg, cue_4.jpg,3,1.0818,1
3,1,214,3,54,3,10, man017.jpg, cue_4.jpg,3,0.6161,1
3,1,215,3,55,3,201, man277.jpg, cue_4.jpg,3,0.6225,1
3,1,231,3,71,3,124, man166.jpg, cue_4.jpg,3,1.1098,1
3,1,235,3,75,3,54, man078.jpg, cue_4.jpg,3,0.6915,1
3,1,238,3,78,3,14, man024.jpg, cue_4.jpg,3,0.6539,1
3,1,165,3,5,4,149, man198.jpg, cue_1.jpg,4,0.7142,1
3,1,168,3,8,4,75, man107.jpg, cue_1.jpg,4,0.69,1
3,1,169,3,9,4,128, man170.jpg, cue_1.jpg,4,0.7749,1
3,1,170,3,10,4,115, man157.jpg, cue_1.jpg,4,0.9341,1
3,1,172,3,12,4,189, man255.jpg, cue_1.jpg,4,0.6492,1
3,1,173,3,13,4,208, man287.jpg, cue_1.jpg,4,0.6706,1
3,1,178,3,18,4,84, man117.jpg, cue_1.jpg,4,0.7762,1
3,1,180,3,20,4,129, man171.jpg, cue_1.jpg,4,0.8183,1
3,1,182,3,22,4,120, man162.jpg, cue_1.jpg,4,0.5983,1
3,1,184,3,24,4,157, man208.jpg, cue_1.jpg,4,0.9979,1
3,1,185,3,25,4,83, man115.jpg, cue_1.jpg,4,1.0683,1
3,1,188,3,28,4,222, man307.jpg, cue_1.jpg,4,0.8843,1
3,1,198,3,38,4,200, man276.jpg, cue_1.jpg,4,0.6143,1
3,1,207,3,47,4,132, man177.jpg, cue_1.jpg,4,1.8066,1
3,1,208,3,48,4,85, man118.jpg, cue_1.jpg,4,1.0105,1
3,1,211,3,51,4,67, man096.jpg, cue_1.jpg,4,0.7789,1
3,1,226,3,66,4,137, man183.jpg, cue_1.jpg,4,1.031,1
3,1,230,3,70,4,207, man284.jpg, cue_1.jpg,4,0.823,1
3,1,239,3,79,4,188, man254.jpg, cue_1.jpg,4,0.6921,1
3,1,240,3,80,4,171, man233.jpg, cue_1.jpg,4,1.7509,1
3,1,244,4,4,1,49, man072.jpg, cue_2.jpg,1,0.733,1
3,1,247,4,7,1,7, man014.jpg, cue_2.jpg,1,0.6671,1
3,1,249,4,9,1,192, man259.jpg, cue_2.jpg,1,0.6554,1
3,1,250,4,10,1,13, man023.jpg, cue_2.jpg,1,0.5964,1
3,1,255,4,15,1,34, man055.jpg, cue_2.jpg,1,0.7163,1
3,1,257,4,17,1,35, man056.jpg, cue_2.jpg,1,0.7728,1
3,1,260,4,20,1,151, man201.jpg, cue_2.jpg,1,0.6553,1
3,1,263,4,23,1,232, man322.jpg, cue_2.jpg,1,0.6858,1
3,1,264,4,24,1,155, man206.jpg, cue_2.jpg,1,0.6904,1
3,1,273,4,33,1,141, man187.jpg, cue_2.jpg,1,1.5194,1
3,1,278,4,38,1,193, man260.jpg, cue_2.jpg,1,0.8112,1
3,1,282,4,42,1,186, man252.jpg, cue_2.jpg,1,0.694,1
3,1,283,4,43,1,27, man044.jpg, cue_2.jpg,2,1.0646,0
3,1,284,4,44,1,125, man167.jpg, cue_2.jpg,1,1.3768,1
3,1,285,4,45,1,70, man101.jpg, cue_2.jpg,1,1.0964,1
3,1,286,4,46,1,213, man297.jpg, cue_2.jpg,1,0.7136,1
3,1,290,4,50,1,102, man138.jpg, cue_2.jpg,1,0.735,1
3,1,294,4,54,1,58, man085.jpg, cue_2.jpg,1,0.7223,1
3,1,305,4,65,1,206, man283.jpg, cue_2.jpg,1,0.7815,1
3,1,309,4,69,1,211, man295.jpg, cue_2.jpg,1,0.7642,1
3,1,241,4,1,2,236, man329.jpg, cue_3.jpg,2,0.8535,1
3,1,242,4,2,2,179, man244.jpg, cue_3.jpg,2,0.6114,1
3,1,251,4,11,2,57, man084.jpg, cue_3.jpg,2,0.7636,1
3,1,252,4,12,2,80, man112.jpg, cue_3.jpg,2,0.6197,1
3,1,256,4,16,2,163, man217.jpg, cue_3.jpg,2,0.6217,1
3,1,261,4,21,2,88, man122.jpg, cue_3.jpg,2,0.6758,1
3,1,262,4,22,2,144, man190.jpg, cue_3.jpg,2,0.9831,1
3,1,266,4,26,2,121, man163.jpg, cue_3.jpg,2,0.9164,1
3,1,271,4,31,2,170, man231.jpg, cue_3.jpg,2,0.6452,1
3,1,280,4,40,2,119, man161.jpg, cue_3.jpg,2,0.6855,1
3,1,289,4,49,2,225, man311.jpg, cue_3.jpg,2,0.9175,1
3,1,293,4,53,2,86, man120.jpg, cue_3.jpg,2,0.7195,1
3,1,296,4,56,2,127, man169.jpg, cue_3.jpg,2,0.6638,1
3,1,300,4,60,2,158, man209.jpg, cue_3.jpg,2,0.6791,1
3,1,302,4,62,2,165, man222.jpg, cue_3.jpg,2,0.6161,1
3,1,304,4,64,2,94, man129.jpg, cue_3.jpg,2,1.1006,1
3,1,307,4,67,2,202, man278.jpg, cue_3.jpg,2,0.748,1
3,1,310,4,70,2,1, man002.jpg, cue_3.jpg,2,0.6519,1
3,1,315,4,75,2,87, man121.jpg, cue_3.jpg,2,0.6063,1
3,1,316,4,76,2,65, man094.jpg, cue_3.jpg,2,0.8687,1
3,1,243,4,3,3,66, man095.jpg, cue_4.jpg,3,0.6813,1
3,1,254,4,14,3,14, man024.jpg, cue_4.jpg,3,0.6308,1
3,1,259,4,19,3,36, man057.jpg, cue_4.jpg,3,0.6161,1
3,1,267,4,27,3,134, man179.jpg, cue_4.jpg,3,0.6243,1
3,1,268,4,28,3,218, man303.jpg, cue_4.jpg,3,0.5672,1
3,1,270,4,30,3,209, man289.jpg, cue_4.jpg,3,0.7904,1
3,1,272,4,32,3,9, man016.jpg, cue_4.jpg,3,1.77,1
3,1,277,4,37,3,98, man134.jpg, cue_4.jpg,3,0.6624,1
3,1,287,4,47,3,54, man078.jpg, cue_4.jpg,3,0.6684,1
3,1,288,4,48,3,5, man010.jpg, cue_4.jpg,3,0.6565,1
3,1,291,4,51,3,216, man301.jpg, cue_4.jpg,3,0.8315,1
3,1,295,4,55,3,18, man031.jpg, cue_4.jpg,3,0.693,1
3,1,297,4,57,3,46, man068.jpg, cue_4.jpg,3,0.6845,1
3,1,298,4,58,3,124, man166.jpg, cue_4.jpg,3,0.6561,1
3,1,299,4,59,3,201, man277.jpg, cue_4.jpg,3,0.7243,1
3,1,306,4,66,3,197, man271.jpg, cue_4.jpg,3,0.8142,1
3,1,311,4,71,3,123, man165.jpg, cue_4.jpg,3,1.0397,1
3,1,313,4,73,3,90, man124.jpg, cue_4.jpg,3,0.7596,1
3,1,317,4,77,3,10, man017.jpg, cue_4.jpg,3,0.6881,1
3,1,320,4,80,3,82, man114.jpg, cue_4.jpg,3,0.7175,1
3,1,245,4,5,4,188, man254.jpg, cue_1.jpg,4,0.7501,1
3,1,246,4,6,4,157, man208.jpg, cue_1.jpg,4,0.8464,1
3,1,248,4,8,4,208, man287.jpg, cue_1.jpg,4,0.7507,1
3,1,253,4,13,4,200, man276.jpg, cue_1.jpg,4,0.6571,1
3,1,258,4,18,4,129, man171.jpg, cue_1.jpg,4,0.6609,1
3,1,265,4,25,4,85, man118.jpg, cue_1.jpg,4,0.7258,1
3,1,269,4,29,4,189, man255.jpg, cue_1.jpg,4,0.6222,1
3,1,274,4,34,4,207, man284.jpg, cue_1.jpg,4,0.7846,1
3,1,275,4,35,4,83, man115.jpg, cue_1.jpg,4,0.9751,1
3,1,276,4,36,4,149, man198.jpg, cue_1.jpg,4,0.7916,1
3,1,279,4,39,4,171, man233.jpg, cue_1.jpg,4,0.6653,1
3,1,281,4,41,4,67, man096.jpg, cue_1.jpg,4,0.6561,1
3,1,292,4,52,4,137, man183.jpg, cue_1.jpg,4,0.6845,1
3,1,301,4,61,4,115, man157.jpg, cue_1.jpg,4,0.8097,1
3,1,303,4,63,4,222, man307.jpg, cue_1.jpg,4,1.1976,1
3,1,308,4,68,4,84, man117.jpg, cue_1.jpg,4,0.7802,1
3,1,312,4,72,4,132, man177.jpg, cue_1.jpg,4,0.7094,1
3,1,314,4,74,4,120, man162.jpg, cue_1.jpg,4,0.6149,1
3,1,318,4,78,4,128, man170.jpg, cue_1.jpg,4,0.66,1
3,1,319,4,79,4,75, man107.jpg, cue_1.jpg,4,0.6319,1
4,1,4,1,4,1,205, man282.jpg, cue_1.jpg,1,1.2469,1
4,1,9,1,9,1,223, man309.jpg, cue_1.jpg,4,2.0187,0
4,1,10,1,10,1,112, man154.jpg, cue_1.jpg,1,1.6518,1
4,1,16,1,16,1,209, man289.jpg, cue_1.jpg,2,1.1926,0
4,1,17,1,17,1,233, man326.jpg, cue_1.jpg,1,1.5182,1
4,1,19,1,19,1,207, man284.jpg, cue_1.jpg,1,1.0334,1
4,1,20,1,20,1,8, man015.jpg, cue_1.jpg,1,2.493,1
4,1,21,1,21,1,38, man059.jpg, cue_1.jpg,2,1.1099,0
4,1,25,1,25,1,126, man168.jpg, cue_1.jpg,1,1.1953,1
4,1,35,1,35,1,170, man231.jpg, cue_1.jpg,1,2.1042,1
4,1,38,1,38,1,115, man157.jpg, cue_1.jpg,7,0,0
4,1,42,1,42,1,86, man120.jpg, cue_1.jpg,3,1.1984,0
4,1,47,1,47,1,95, man130.jpg, cue_1.jpg,1,0.9672,1
4,1,57,1,57,1,39, man060.jpg, cue_1.jpg,1,1.0659,1
4,1,60,1,60,1,218, man303.jpg, cue_1.jpg,1,1.4736,1
4,1,65,1,65,1,129, man171.jpg, cue_1.jpg,3,1.0339,0
4,1,68,1,68,1,15, man025.jpg, cue_1.jpg,2,0.8845,0
4,1,74,1,74,1,239, man333.jpg, cue_1.jpg,1,1.2224,1
4,1,75,1,75,1,193, man260.jpg, cue_1.jpg,3,2.1147,0
4,1,80,1,80,1,127, man169.jpg, cue_1.jpg,1,1.0664,1
4,1,7,1,7,2,219, man304.jpg, cue_2.jpg,2,1.9629,1
4,1,11,1,11,2,19, man032.jpg, cue_2.jpg,1,1.1502,0
4,1,12,1,12,2,221, man306.jpg, cue_2.jpg,2,1.1076,1
4,1,13,1,13,2,230, man316.jpg, cue_2.jpg,2,1.0129,1
4,1,27,1,27,2,94, man129.jpg, cue_2.jpg,1,1.6878,0
4,1,31,1,31,2,226, man312.jpg, cue_2.jpg,2,1.4366,1
4,1,32,1,32,2,17, man029.jpg, cue_2.jpg,3,1.6326,0
4,1,36,1,36,2,192, man259.jpg, cue_2.jpg,2,1.5701,1
4,1,39,1,39,2,181, man246.jpg, cue_2.jpg,1,1.7496,0
4,1,40,1,40,2,135, man180.jpg, cue_2.jpg,4,1.5057,0
4,1,41,1,41,2,110, man152.jpg, cue_2.jpg,2,1.4345,1
4,1,43,1,43,2,176, man240.jpg, cue_2.jpg,1,1.777,0
4,1,49,1,49,2,47, man070.jpg, cue_2.jpg,2,0.896,1
4,1,50,1,50,2,210, man291.jpg, cue_2.jpg,2,1.7603,1
4,1,62,1,62,2,155, man206.jpg, cue_2.jpg,2,0.8736,1
4,1,64,1,64,2,42, man063.jpg, cue_2.jpg,2,1.3967,1
4,1,70,1,70,2,196, man268.jpg, cue_2.jpg,2,0.7338,1
4,1,71,1,71,2,182, man247.jpg, cue_2.jpg,2,0.7507,1
4,1,73,1,73,2,1, man002.jpg, cue_2.jpg,1,1.0688,0
4,1,78,1,78,2,237, man330.jpg, cue_2.jpg,3,1.888,0
4,1,2,1,2,3,34, man055.jpg, cue_4.jpg,7,0,0
4,1,5,1,5,3,68, man099.jpg, cue_4.jpg,3,1.4033,1
4,1,6,1,6,3,72, man104.jpg, cue_4.jpg,3,0.8973,1
4,1,8,1,8,3,191, man258.jpg, cue_4.jpg,1,1.0487,0
4,1,14,1,14,3,41, man062.jpg, cue_4.jpg,2,1.2747,0
4,1,22,1,22,3,66, man095.jpg, cue_4.jpg,3,1.1022,1
4,1,34,1,34,3,177, man241.jpg, cue_4.jpg,3,2.198,1
4,1,37,1,37,3,22, man036.jpg, cue_4.jpg,3,1.6809,1
4,1,44,1,44,3,143, man189.jpg, cue_4.jpg,2,0.9415,0
4,1,45,1,45,3,89, man123.jpg, cue_4.jpg,2,0.9397,0
4,1,46,1,46,3,153, man203.jpg, cue_4.jpg,3,1.2599,1
4,1,51,1,51,3,52, man076.jpg, cue_4.jpg,4,1.5912,0
4,1,53,1,53,3,163, man217.jpg, cue_4.jpg,3,1.3541,1
4,1,54,1,54,3,101, man137.jpg, cue_4.jpg,3,0.9143,1
4,1,56,1,56,3,44, man066.jpg, cue_4.jpg,3,2.2428,1
4,1,58,1,58,3,27, man044.jpg, cue_4.jpg,1,1.1822,0
4,1,61,1,61,3,73, man105.jpg, cue_4.jpg,3,1.3977,1
4,1,72,1,72,3,6, man013.jpg, cue_4.jpg,3,0.8478,1
4,1,77,1,77,3,141, man187.jpg, cue_4.jpg,1,1.1971,0
4,1,79,1,79,3,224, man310.jpg, cue_4.jpg,3,2.2163,1
4,1,1,1,1,4,67, man096.jpg, cue_3.jpg,2,2.4669,0
4,1,3,1,3,4,172, man234.jpg, cue_3.jpg,1,1.6967,0
4,1,15,1,15,4,195, man267.jpg, cue_3.jpg,4,0.8111,1
4,1,18,1,18,4,240, man336.jpg, cue_3.jpg,3,1.4218,0
4,1,23,1,23,4,56, man082.jpg, cue_3.jpg,1,2.032,0
4,1,24,1,24,4,211, man295.jpg, cue_3.jpg,4,1.2645,1
4,1,26,1,26,4,84, man117.jpg, cue_3.jpg,3,2.0886,0
4,1,28,1,28,4,31, man050.jpg, cue_3.jpg,4,1.926,1
4,1,29,1,29,4,167, man228.jpg, cue_3.jpg,4,1.0364,1
4,1,30,1,30,4,144, man190.jpg, cue_3.jpg,1,2.2954,0
4,1,33,1,33,4,202, man278.jpg, cue_3.jpg,4,2.1611,1
4,1,48,1,48,4,60, man088.jpg, cue_3.jpg,2,1.2627,0
4,1,52,1,52,4,206, man283.jpg, cue_3.jpg,4,0.7628,1
4,1,55,1,55,4,188, man254.jpg, cue_3.jpg,4,1.5052,1
4,1,59,1,59,4,87, man121.jpg, cue_3.jpg,1,1.2823,0
4,1,63,1,63,4,231, man321.jpg, cue_3.jpg,4,1.2072,1
4,1,66,1,66,4,78, man110.jpg, cue_3.jpg,4,1.2855,1
4,1,67,1,67,4,69, man100.jpg, cue_3.jpg,4,0.934,1
4,1,69,1,69,4,116, man158.jpg, cue_3.jpg,1,1.0935,0
4,1,76,1,76,4,26, man042.jpg, cue_3.jpg,4,1.5996,1
4,1,81,2,1,1,223, man309.jpg, cue_1.jpg,1,1.0707,1
4,1,86,2,6,1,193, man260.jpg, cue_1.jpg,3,1.8096,0
4,1,88,2,8,1,207, man284.jpg, cue_1.jpg,1,1.201,1
4,1,97,2,17,1,8, man015.jpg, cue_1.jpg,3,1.0854,0
4,1,98,2,18,1,126, man168.jpg, cue_1.jpg,1,0.71,1
4,1,103,2,23,1,86, man120.jpg, cue_1.jpg,1,1.1109,1
4,1,107,2,27,1,15, man025.jpg, cue_1.jpg,1,0.8092,1
4,1,112,2,32,1,218, man303.jpg, cue_1.jpg,1,1.3196,1
4,1,126,2,46,1,38, man059.jpg, cue_1.jpg,1,0.7183,1
4,1,127,2,47,1,239, man333.jpg, cue_1.jpg,1,0.7039,1
4,1,128,2,48,1,170, man231.jpg, cue_1.jpg,4,1.2995,0
4,1,130,2,50,1,95, man130.jpg, cue_1.jpg,1,0.7879,1
4,1,131,2,51,1,233, man326.jpg, cue_1.jpg,1,0.7392,1
4,1,134,2,54,1,115, man157.jpg, cue_1.jpg,1,1.3636,1
4,1,137,2,57,1,209, man289.jpg, cue_1.jpg,1,0.8509,1
4,1,141,2,61,1,129, man171.jpg, cue_1.jpg,1,0.8216,1
4,1,145,2,65,1,205, man282.jpg, cue_1.jpg,1,1.0344,1
4,1,150,2,70,1,112, man154.jpg, cue_1.jpg,2,0.875,0
4,1,152,2,72,1,127, man169.jpg, cue_1.jpg,4,1.4524,0
4,1,153,2,73,1,39, man060.jpg, cue_1.jpg,1,1.0627,1
4,1,90,2,10,2,1, man002.jpg, cue_2.jpg,2,0.9459,1
4,1,92,2,12,2,19, man032.jpg, cue_2.jpg,2,0.9416,1
4,1,93,2,13,2,155, man206.jpg, cue_2.jpg,2,0.8226,1
4,1,94,2,14,2,221, man306.jpg, cue_2.jpg,2,0.7408,1
4,1,99,2,19,2,176, man240.jpg, cue_2.jpg,1,1.2211,0
4,1,101,2,21,2,182, man247.jpg, cue_2.jpg,2,0.7311,1
4,1,105,2,25,2,196, man268.jpg, cue_2.jpg,2,0.7763,1
4,1,109,2,29,2,110, man152.jpg, cue_2.jpg,2,0.8467,1
4,1,113,2,33,2,181, man246.jpg, cue_2.jpg,1,2.0334,0
4,1,118,2,38,2,17, man029.jpg, cue_2.jpg,2,0.7489,1
4,1,123,2,43,2,219, man304.jpg, cue_2.jpg,2,1.36,1
4,1,129,2,49,2,237, man330.jpg, cue_2.jpg,2,1.1046,1
4,1,135,2,55,2,210, man291.jpg, cue_2.jpg,2,0.714,1
4,1,138,2,58,2,47, man070.jpg, cue_2.jpg,2,0.7842,1
4,1,139,2,59,2,192, man259.jpg, cue_2.jpg,1,1.1359,0
4,1,142,2,62,2,94, man129.jpg, cue_2.jpg,2,0.7227,1
4,1,149,2,69,2,230, man316.jpg, cue_2.jpg,2,0.8466,1
4,1,154,2,74,2,226, man312.jpg, cue_2.jpg,2,0.6503,1
4,1,155,2,75,2,135, man180.jpg, cue_2.jpg,2,1.6631,1
4,1,159,2,79,2,42, man063.jpg, cue_2.jpg,3,1.6213,0
4,1,82,2,2,3,101, man137.jpg, cue_4.jpg,3,0.9469,1
4,1,85,2,5,3,52, man076.jpg, cue_4.jpg,3,1.0378,1
4,1,89,2,9,3,177, man241.jpg, cue_4.jpg,3,1.4228,1
4,1,96,2,16,3,68, man099.jpg, cue_4.jpg,3,1.0495,1
4,1,102,2,22,3,44, man066.jpg, cue_4.jpg,3,1.2919,1
4,1,104,2,24,3,72, man104.jpg, cue_4.jpg,3,0.76,1
4,1,114,2,34,3,141, man187.jpg, cue_4.jpg,3,1.1378,1
4,1,115,2,35,3,6, man013.jpg, cue_4.jpg,3,0.6583,1
4,1,116,2,36,3,34, man055.jpg, cue_4.jpg,3,1.8144,1
4,1,119,2,39,3,41, man062.jpg, cue_4.jpg,2,0.9101,0
4,1,121,2,41,3,163, man217.jpg, cue_4.jpg,3,0.9375,1
4,1,124,2,44,3,191, man258.jpg, cue_4.jpg,3,1.2212,1
4,1,132,2,52,3,73, man105.jpg, cue_4.jpg,1,1.2038,0
4,1,136,2,56,3,22, man036.jpg, cue_4.jpg,3,1.3893,1
4,1,147,2,67,3,153, man203.jpg, cue_4.jpg,3,0.7479,1
4,1,148,2,68,3,66, man095.jpg, cue_4.jpg,3,1.4841,1
4,1,151,2,71,3,143, man189.jpg, cue_4.jpg,3,0.7485,1
4,1,156,2,76,3,27, man044.jpg, cue_4.jpg,4,1.5609,0
4,1,157,2,77,3,89, man123.jpg, cue_4.jpg,3,0.7504,1
4,1,160,2,80,3,224, man310.jpg, cue_4.jpg,3,1.7344,1
4,1,83,2,3,4,167, man228.jpg, cue_3.jpg,4,1.1318,1
4,1,84,2,4,4,56, man082.jpg, cue_3.jpg,4,0.749,1
4,1,87,2,7,4,84, man117.jpg, cue_3.jpg,4,1.0695,1
4,1,91,2,11,4,188, man254.jpg, cue_3.jpg,4,1.0835,1
4,1,95,2,15,4,206, man283.jpg, cue_3.jpg,4,0.6619,1
4,1,100,2,20,4,202, man278.jpg, cue_3.jpg,3,2.4268,0
4,1,106,2,26,4,231, man321.jpg, cue_3.jpg,4,1.1272,1
4,1,108,2,28,4,172, man234.jpg, cue_3.jpg,4,1.7355,1
4,1,110,2,30,4,26, man042.jpg, cue_3.jpg,4,0.7151,1
4,1,111,2,31,4,240, man336.jpg, cue_3.jpg,3,1.422,0
4,1,117,2,37,4,195, man267.jpg, cue_3.jpg,4,0.7155,1
4,1,120,2,40,4,144, man190.jpg, cue_3.jpg,4,1.6302,1
4,1,122,2,42,4,78, man110.jpg, cue_3.jpg,4,0.8509,1
4,1,125,2,45,4,60, man088.jpg, cue_3.jpg,4,1.652,1
4,1,133,2,53,4,69, man100.jpg, cue_3.jpg,4,0.8728,1
4,1,140,2,60,4,211, man295.jpg, cue_3.jpg,4,0.8057,1
4,1,143,2,63,4,31, man050.jpg, cue_3.jpg,4,1.093,1
4,1,144,2,64,4,87, man121.jpg, cue_3.jpg,1,0.8548,0
4,1,146,2,66,4,116, man158.jpg, cue_3.jpg,4,0.8466,1
4,1,158,2,78,4,67, man096.jpg, cue_3.jpg,4,2.1589,1
4,1,174,3,14,1,205, man282.jpg, cue_1.jpg,1,0.7178,1
4,1,180,3,20,1,15, man025.jpg, cue_1.jpg,1,0.7464,1
4,1,182,3,22,1,233, man326.jpg, cue_1.jpg,1,0.7801,1
4,1,183,3,23,1,129, man171.jpg, cue_1.jpg,1,0.7469,1
4,1,188,3,28,1,239, man333.jpg, cue_1.jpg,1,0.782,1
4,1,189,3,29,1,86, man120.jpg, cue_1.jpg,1,0.8775,1
4,1,193,3,33,1,115, man157.jpg, cue_1.jpg,1,1.0323,1
4,1,201,3,41,1,170, man231.jpg, cue_1.jpg,1,1.039,1
4,1,202,3,42,1,127, man169.jpg, cue_1.jpg,1,0.9476,1
4,1,203,3,43,1,112, man154.jpg, cue_1.jpg,1,0.7167,1
4,1,205,3,45,1,193, man260.jpg, cue_1.jpg,1,0.8338,1
4,1,209,3,49,1,223, man309.jpg, cue_1.jpg,1,0.6801,1
4,1,216,3,56,1,38, man059.jpg, cue_1.jpg,1,0.8119,1
4,1,217,3,57,1,126, man168.jpg, cue_1.jpg,1,0.6488,1
4,1,218,3,58,1,8, man015.jpg, cue_1.jpg,1,0.7023,1
4,1,220,3,60,1,207, man284.jpg, cue_1.jpg,1,0.9138,1
4,1,221,3,61,1,95, man130.jpg, cue_1.jpg,1,0.6994,1
4,1,229,3,69,1,218, man303.jpg, cue_1.jpg,1,0.7465,1
4,1,233,3,73,1,39, man060.jpg, cue_1.jpg,1,0.7206,1
4,1,234,3,74,1,209, man289.jpg, cue_1.jpg,2,1.4272,0
4,1,162,3,2,2,181, man246.jpg, cue_2.jpg,2,1.1396,1
4,1,165,3,5,2,94, man129.jpg, cue_2.jpg,2,0.761,1
4,1,166,3,6,2,1, man002.jpg, cue_2.jpg,2,0.6957,1
4,1,167,3,7,2,42, man063.jpg, cue_2.jpg,2,1.1947,1
4,1,168,3,8,2,230, man316.jpg, cue_2.jpg,2,0.7923,1
4,1,169,3,9,2,17, man029.jpg, cue_2.jpg,2,0.7591,1
4,1,171,3,11,2,226, man312.jpg, cue_2.jpg,2,0.6805,1
4,1,172,3,12,2,237, man330.jpg, cue_2.jpg,2,0.7634,1
4,1,175,3,15,2,196, man268.jpg, cue_2.jpg,2,0.7517,1
4,1,176,3,16,2,47, man070.jpg, cue_2.jpg,2,0.7044,1
4,1,179,3,19,2,192, man259.jpg, cue_2.jpg,2,0.7121,1
4,1,185,3,25,2,219, man304.jpg, cue_2.jpg,2,0.7808,1
4,1,198,3,38,2,19, man032.jpg, cue_2.jpg,2,0.851,1
4,1,199,3,39,2,176, man240.jpg, cue_2.jpg,1,0.784,0
4,1,214,3,54,2,210, man291.jpg, cue_2.jpg,2,0.6935,1
4,1,215,3,55,2,221, man306.jpg, cue_2.jpg,2,0.6635,1
4,1,230,3,70,2,155, man206.jpg, cue_2.jpg,2,0.7629,1
4,1,231,3,71,2,110, man152.jpg, cue_2.jpg,2,0.7151,1
4,1,232,3,72,2,135, man180.jpg, cue_2.jpg,2,0.6847,1
4,1,239,3,79,2,182, man247.jpg, cue_2.jpg,2,0.7129,1
4,1,161,3,1,3,224, man310.jpg, cue_4.jpg,3,1.2562,1
4,1,163,3,3,3,66, man095.jpg, cue_4.jpg,3,0.8968,1
4,1,178,3,18,3,22, man036.jpg, cue_4.jpg,3,0.726,1
4,1,186,3,26,3,41, man062.jpg, cue_4.jpg,3,0.6845,1
4,1,187,3,27,3,141, man187.jpg, cue_4.jpg,3,1.2001,1
4,1,194,3,34,3,163, man217.jpg, cue_4.jpg,3,0.7813,1
4,1,197,3,37,3,68, man099.jpg, cue_4.jpg,3,0.721,1
4,1,200,3,40,3,27, man044.jpg, cue_4.jpg,3,2.0529,1
4,1,204,3,44,3,52, man076.jpg, cue_4.jpg,3,1.0223,1
4,1,206,3,46,3,6, man013.jpg, cue_4.jpg,3,0.64,1
4,1,207,3,47,3,89, man123.jpg, cue_4.jpg,3,0.8206,1
4,1,208,3,48,3,153, man203.jpg, cue_4.jpg,3,0.6586,1
4,1,212,3,52,3,34, man055.jpg, cue_4.jpg,3,0.7587,1
4,1,222,3,62,3,44, man066.jpg, cue_4.jpg,3,0.814,1
4,1,225,3,65,3,101, man137.jpg, cue_4.jpg,3,0.7429,1
4,1,226,3,66,3,73, man105.jpg, cue_4.jpg,4,1.2235,0
4,1,227,3,67,3,177, man241.jpg, cue_4.jpg,3,0.7804,1
4,1,235,3,75,3,191, man258.jpg, cue_4.jpg,3,1.1661,1
4,1,237,3,77,3,143, man189.jpg, cue_4.jpg,3,0.7082,1
4,1,238,3,78,3,72, man104.jpg, cue_4.jpg,3,0.7257,1
4,1,164,3,4,4,69, man100.jpg, cue_3.jpg,4,0.8774,1
4,1,170,3,10,4,78, man110.jpg, cue_3.jpg,4,0.76,1
4,1,173,3,13,4,67, man096.jpg, cue_3.jpg,4,0.7142,1
4,1,177,3,17,4,188, man254.jpg, cue_3.jpg,4,0.691,1
4,1,181,3,21,4,211, man295.jpg, cue_3.jpg,4,0.7464,1
4,1,184,3,24,4,240, man336.jpg, cue_3.jpg,4,0.7316,1
4,1,190,3,30,4,26, man042.jpg, cue_3.jpg,4,0.7279,1
4,1,191,3,31,4,167, man228.jpg, cue_3.jpg,4,0.8081,1
4,1,192,3,32,4,87, man121.jpg, cue_3.jpg,4,1.1444,1
4,1,195,3,35,4,144, man190.jpg, cue_3.jpg,4,0.9558,1
4,1,196,3,36,4,31, man050.jpg, cue_3.jpg,4,0.8523,1
4,1,210,3,50,4,116, man158.jpg, cue_3.jpg,4,0.8114,1
4,1,211,3,51,4,231, man321.jpg, cue_3.jpg,4,1.2246,1
4,1,213,3,53,4,84, man117.jpg, cue_3.jpg,4,0.8229,1
4,1,219,3,59,4,206, man283.jpg, cue_3.jpg,4,0.7367,1
4,1,223,3,63,4,202, man278.jpg, cue_3.jpg,4,1.2916,1
4,1,224,3,64,4,195, man267.jpg, cue_3.jpg,4,0.7099,1
4,1,228,3,68,4,56, man082.jpg, cue_3.jpg,4,0.7795,1
4,1,236,3,76,4,60, man088.jpg, cue_3.jpg,4,0.9735,1
4,1,240,3,80,4,172, man234.jpg, cue_3.jpg,3,1.3383,0
4,1,241,4,1,1,129, man171.jpg, cue_1.jpg,1,1.0744,1
4,1,245,4,5,1,95, man130.jpg, cue_1.jpg,1,0.9469,1
4,1,248,4,8,1,218, man303.jpg, cue_1.jpg,1,0.9732,1
4,1,250,4,10,1,205, man282.jpg, cue_1.jpg,1,0.8856,1
4,1,252,4,12,1,207, man284.jpg, cue_1.jpg,1,1.0012,1
4,1,257,4,17,1,8, man015.jpg, cue_1.jpg,1,0.888,1
4,1,260,4,20,1,223, man309.jpg, cue_1.jpg,1,0.9848,1
4,1,268,4,28,1,239, man333.jpg, cue_1.jpg,1,0.8953,1
4,1,270,4,30,1,15, man025.jpg, cue_1.jpg,1,0.821,1
4,1,272,4,32,1,39, man060.jpg, cue_1.jpg,1,1.0406,1
4,1,279,4,39,1,86, man120.jpg, cue_1.jpg,1,1.0696,1
4,1,287,4,47,1,115, man157.jpg, cue_1.jpg,1,0.9694,1
4,1,294,4,54,1,127, man169.jpg, cue_1.jpg,1,1.4947,1
4,1,298,4,58,1,209, man289.jpg, cue_1.jpg,1,1.7087,1
4,1,304,4,64,1,193, man260.jpg, cue_1.jpg,1,1.1235,1
4,1,305,4,65,1,112, man154.jpg, cue_1.jpg,1,0.8207,1
4,1,312,4,72,1,126, man168.jpg, cue_1.jpg,1,0.7778,1
4,1,314,4,74,1,38, man059.jpg, cue_1.jpg,1,0.7914,1
4,1,315,4,75,1,170, man231.jpg, cue_1.jpg,1,0.9665,1
4,1,316,4,76,1,233, man326.jpg, cue_1.jpg,1,0.7964,1
4,1,242,4,2,2,181, man246.jpg, cue_2.jpg,2,1.2385,1
4,1,247,4,7,2,182, man247.jpg, cue_2.jpg,2,0.9823,1
4,1,254,4,14,2,226, man312.jpg, cue_2.jpg,2,0.8247,1
4,1,256,4,16,2,237, man330.jpg, cue_2.jpg,2,0.6922,1
4,1,258,4,18,2,19, man032.jpg, cue_2.jpg,2,1.2674,1
4,1,263,4,23,2,42, man063.jpg, cue_2.jpg,2,1.4593,1
4,1,265,4,25,2,192, man259.jpg, cue_2.jpg,2,0.7887,1
4,1,271,4,31,2,155, man206.jpg, cue_2.jpg,2,0.8186,1
4,1,273,4,33,2,219, man304.jpg, cue_2.jpg,2,1.0286,1
4,1,275,4,35,2,230, man316.jpg, cue_2.jpg,2,0.6858,1
4,1,278,4,38,2,17, man029.jpg, cue_2.jpg,2,0.6989,1
4,1,286,4,46,2,94, man129.jpg, cue_2.jpg,2,0.7437,1
4,1,289,4,49,2,1, man002.jpg, cue_2.jpg,2,0.7122,1
4,1,293,4,53,2,210, man291.jpg, cue_2.jpg,2,0.6754,1
4,1,300,4,60,2,110, man152.jpg, cue_2.jpg,2,0.724,1
4,1,302,4,62,2,176, man240.jpg, cue_2.jpg,2,1.2373,1
4,1,308,4,68,2,221, man306.jpg, cue_2.jpg,2,0.7232,1
4,1,309,4,69,2,196, man268.jpg, cue_2.jpg,2,0.7578,1
4,1,310,4,70,2,135, man180.jpg, cue_2.jpg,2,0.7111,1
4,1,311,4,71,2,47, man070.jpg, cue_2.jpg,2,0.7284,1
4,1,243,4,3,3,44, man066.jpg, cue_4.jpg,3,0.9946,1
4,1,253,4,13,3,177, man241.jpg, cue_4.jpg,3,0.9437,1
4,1,255,4,15,3,41, man062.jpg, cue_4.jpg,3,0.823,1
4,1,261,4,21,3,6, man013.jpg, cue_4.jpg,3,0.7535,1
4,1,262,4,22,3,143, man189.jpg, cue_4.jpg,3,0.748,1
4,1,267,4,27,3,163, man217.jpg, cue_4.jpg,3,0.7848,1
4,1,274,4,34,3,27, man044.jpg, cue_4.jpg,3,1.4176,1
4,1,277,4,37,3,73, man105.jpg, cue_4.jpg,3,0.8967,1
4,1,282,4,42,3,153, man203.jpg, cue_4.jpg,3,0.7474,1
4,1,284,4,44,3,224, man310.jpg, cue_4.jpg,3,0.8171,1
4,1,291,4,51,3,141, man187.jpg, cue_4.jpg,3,0.909,1
4,1,296,4,56,3,89, man123.jpg, cue_4.jpg,3,0.864,1
4,1,297,4,57,3,66, man095.jpg, cue_4.jpg,3,0.7481,1
4,1,299,4,59,3,22, man036.jpg, cue_4.jpg,3,0.773,1
4,1,303,4,63,3,68, man099.jpg, cue_4.jpg,3,0.7216,1
4,1,306,4,66,3,101, man137.jpg, cue_4.jpg,3,0.7537,1
4,1,313,4,73,3,191, man258.jpg, cue_4.jpg,3,0.8084,1
4,1,317,4,77,3,52, man076.jpg, cue_4.jpg,3,1.0681,1
4,1,319,4,79,3,72, man104.jpg, cue_4.jpg,3,0.7026,1
4,1,320,4,80,3,34, man055.jpg, cue_4.jpg,3,0.658,1
4,1,244,4,4,4,78, man110.jpg, cue_3.jpg,4,0.9049,1
4,1,246,4,6,4,167, man228.jpg, cue_3.jpg,4,0.9064,1
4,1,249,4,9,4,144, man190.jpg, cue_3.jpg,4,1.1407,1
4,1,251,4,11,4,206, man283.jpg, cue_3.jpg,4,0.9448,1
4,1,259,4,19,4,87, man121.jpg, cue_3.jpg,4,0.8469,1
4,1,264,4,24,4,26, man042.jpg, cue_3.jpg,4,0.8229,1
4,1,266,4,26,4,202, man278.jpg, cue_3.jpg,4,0.8516,1
4,1,269,4,29,4,69, man100.jpg, cue_3.jpg,4,0.9045,1
4,1,276,4,36,4,211, man295.jpg, cue_3.jpg,4,0.7858,1
4,1,280,4,40,4,67, man096.jpg, cue_3.jpg,4,0.8168,1
4,1,281,4,41,4,240, man336.jpg, cue_3.jpg,4,1.5986,1
4,1,283,4,43,4,231, man321.jpg, cue_3.jpg,4,1.0192,1
4,1,285,4,45,4,195, man267.jpg, cue_3.jpg,4,0.9111,1
4,1,288,4,48,4,84, man117.jpg, cue_3.jpg,4,0.9776,1
4,1,290,4,50,4,188, man254.jpg, cue_3.jpg,4,1.0982,1
4,1,292,4,52,4,116, man158.jpg, cue_3.jpg,4,0.8545,1
4,1,295,4,55,4,31, man050.jpg, cue_3.jpg,4,1.3524,1
4,1,301,4,61,4,60, man088.jpg, cue_3.jpg,4,0.8223,1
4,1,307,4,67,4,56, man082.jpg, cue_3.jpg,4,0.7549,1
4,1,318,4,78,4,172, man234.jpg, cue_3.jpg,4,1.1351,1
5,1,1,1,1,1,106, man145.jpg, cue_2.jpg,1,1.6692,1
5,1,3,1,3,1,76, man108.jpg, cue_2.jpg,1,1.2119,1
5,1,9,1,9,1,3, man005.jpg, cue_2.jpg,1,0.9696,1
5,1,12,1,12,1,194, man262.jpg, cue_2.jpg,1,2.0322,1
5,1,13,1,13,1,169, man230.jpg, cue_2.jpg,1,1.0028,1
5,1,18,1,18,1,155, man206.jpg, cue_2.jpg,1,0.7873,1
5,1,19,1,19,1,164, man221.jpg, cue_2.jpg,4,1.3789,0
5,1,23,1,23,1,129, man171.jpg, cue_2.jpg,1,2.0702,1
5,1,28,1,28,1,212, man296.jpg, cue_2.jpg,1,0.7635,1
5,1,37,1,37,1,218, man303.jpg, cue_2.jpg,1,0.7532,1
5,1,39,1,39,1,193, man260.jpg, cue_2.jpg,1,0.9437,1
5,1,47,1,47,1,63, man092.jpg, cue_2.jpg,1,0.7808,1
5,1,51,1,51,1,142, man188.jpg, cue_2.jpg,4,2.0598,0
5,1,55,1,55,1,128, man170.jpg, cue_2.jpg,1,1.6608,1
5,1,56,1,56,1,222, man307.jpg, cue_2.jpg,1,0.9662,1
5,1,61,1,61,1,12, man022.jpg, cue_2.jpg,1,1.3568,1
5,1,73,1,73,1,68, man099.jpg, cue_2.jpg,7,0,0
5,1,76,1,76,1,50, man073.jpg, cue_2.jpg,1,0.8516,1
5,1,78,1,78,1,213, man297.jpg, cue_2.jpg,1,1.072,1
5,1,79,1,79,1,95, man130.jpg, cue_2.jpg,1,1.8265,1
5,1,2,1,2,2,56, man082.jpg, cue_4.jpg,7,0,0
5,1,5,1,5,2,180, man245.jpg, cue_4.jpg,2,1.0561,1
5,1,7,1,7,2,35, man056.jpg, cue_4.jpg,1,2.0305,0
5,1,14,1,14,2,29, man047.jpg, cue_4.jpg,1,1.0082,0
5,1,21,1,21,2,72, man104.jpg, cue_4.jpg,2,1.6315,1
5,1,26,1,26,2,107, man147.jpg, cue_4.jpg,2,1.1447,1
5,1,27,1,27,2,88, man122.jpg, cue_4.jpg,2,1.4487,1
5,1,29,1,29,2,55, man079.jpg, cue_4.jpg,2,0.8431,1
5,1,30,1,30,2,198, man273.jpg, cue_4.jpg,2,0.9042,1
5,1,38,1,38,2,39, man060.jpg, cue_4.jpg,7,0,0
5,1,40,1,40,2,207, man284.jpg, cue_4.jpg,4,2.007,0
5,1,43,1,43,2,240, man336.jpg, cue_4.jpg,2,1.7915,1
5,1,54,1,54,2,61, man089.jpg, cue_4.jpg,2,0,1
5,1,57,1,57,2,206, man283.jpg, cue_4.jpg,2,2.3018,1
5,1,63,1,63,2,190, man257.jpg, cue_4.jpg,2,0.8836,1
5,1,64,1,64,2,235, man328.jpg, cue_4.jpg,1,1.5842,0
5,1,68,1,68,2,175, man238.jpg, cue_4.jpg,2,0.7751,1
5,1,70,1,70,2,156, man207.jpg, cue_4.jpg,2,2.1868,1
5,1,71,1,71,2,237, man330.jpg, cue_4.jpg,7,0,0
5,1,75,1,75,2,37, man058.jpg, cue_4.jpg,2,2.2911,1
5,1,6,1,6,3,10, man017.jpg, cue_1.jpg,3,0.897,1
5,1,8,1,8,3,197, man271.jpg, cue_1.jpg,3,1.2785,1
5,1,16,1,16,3,102, man138.jpg, cue_1.jpg,3,0.9578,1
5,1,20,1,20,3,238, man332.jpg, cue_1.jpg,3,1.5025,1
5,1,22,1,22,3,200, man276.jpg, cue_1.jpg,3,0.875,1
5,1,24,1,24,3,195, man267.jpg, cue_1.jpg,3,0.9121,1
5,1,31,1,31,3,130, man172.jpg, cue_1.jpg,3,0.7857,1
5,1,32,1,32,3,94, man129.jpg, cue_1.jpg,7,0,0
5,1,33,1,33,3,148, man197.jpg, cue_1.jpg,3,0.8313,1
5,1,34,1,34,3,53, man077.jpg, cue_1.jpg,1,2.2217,0
5,1,35,1,35,3,70, man101.jpg, cue_1.jpg,4,2.2784,0
5,1,44,1,44,3,96, man131.jpg, cue_1.jpg,3,1.3257,1
5,1,45,1,45,3,166, man223.jpg, cue_1.jpg,3,2.5001,1
5,1,49,1,49,3,79, man111.jpg, cue_1.jpg,3,0.8221,1
5,1,53,1,53,3,165, man222.jpg, cue_1.jpg,3,1.4178,1
5,1,59,1,59,3,2, man004.jpg, cue_1.jpg,3,1.3739,1
5,1,65,1,65,3,26, man042.jpg, cue_1.jpg,3,1.2518,1
5,1,72,1,72,3,219, man304.jpg, cue_1.jpg,3,0.8673,1
5,1,77,1,77,3,105, man144.jpg, cue_1.jpg,3,2.3212,1
5,1,80,1,80,3,141, man187.jpg, cue_1.jpg,1,2.2304,0
5,1,4,1,4,4,73, man105.jpg, cue_3.jpg,4,1.7376,1
5,1,10,1,10,4,57, man084.jpg, cue_3.jpg,4,0.7525,1
5,1,11,1,11,4,203, man279.jpg, cue_3.jpg,4,0.8168,1
5,1,15,1,15,4,19, man032.jpg, cue_3.jpg,4,1.902,1
5,1,17,1,17,4,136, man182.jpg, cue_3.jpg,4,0.8221,1
5,1,25,1,25,4,78, man110.jpg, cue_3.jpg,7,0,0
5,1,36,1,36,4,59, man086.jpg, cue_3.jpg,4,1.453,1
5,1,41,1,41,4,54, man078.jpg, cue_3.jpg,4,0.9861,1
5,1,42,1,42,4,202, man278.jpg, cue_3.jpg,4,0.7211,1
5,1,46,1,46,4,137, man183.jpg, cue_3.jpg,4,1.1659,1
5,1,48,1,48,4,230, man316.jpg, cue_3.jpg,4,1.7073,1
5,1,50,1,50,4,71, man102.jpg, cue_3.jpg,4,0.9474,1
5,1,52,1,52,4,42, man063.jpg, cue_3.jpg,4,2.3479,1
5,1,58,1,58,4,92, man126.jpg, cue_3.jpg,4,1.5166,1
5,1,60,1,60,4,75, man107.jpg, cue_3.jpg,4,2.1002,1
5,1,62,1,62,4,65, man094.jpg, cue_3.jpg,4,0.7555,1
5,1,66,1,66,4,163, man217.jpg, cue_3.jpg,4,0.9437,1
5,1,67,1,67,4,226, man312.jpg, cue_3.jpg,4,1.5274,1
5,1,69,1,69,4,220, man305.jpg, cue_3.jpg,4,1.9655,1
5,1,74,1,74,4,33, man054.jpg, cue_3.jpg,4,2.1411,1
5,1,82,2,2,1,193, man260.jpg, cue_2.jpg,1,0.9203,1
5,1,83,2,3,1,3, man005.jpg, cue_2.jpg,1,1.202,1
5,1,88,2,8,1,194, man262.jpg, cue_2.jpg,1,0.7774,1
5,1,97,2,17,1,155, man206.jpg, cue_2.jpg,1,0.746,1
5,1,99,2,19,1,142, man188.jpg, cue_2.jpg,1,1.5189,1
5,1,101,2,21,1,212, man296.jpg, cue_2.jpg,1,0.7509,1
5,1,104,2,24,1,128, man170.jpg, cue_2.jpg,1,1.3599,1
5,1,112,2,32,1,50, man073.jpg, cue_2.jpg,1,0.746,1
5,1,118,2,38,1,169, man230.jpg, cue_2.jpg,1,0.7867,1
5,1,120,2,40,1,68, man099.jpg, cue_2.jpg,1,1.1734,1
5,1,125,2,45,1,164, man221.jpg, cue_2.jpg,1,1.29,1
5,1,127,2,47,1,222, man307.jpg, cue_2.jpg,1,0.6951,1
5,1,129,2,49,1,12, man022.jpg, cue_2.jpg,1,0.7346,1
5,1,136,2,56,1,76, man108.jpg, cue_2.jpg,1,0.9811,1
5,1,144,2,64,1,106, man145.jpg, cue_2.jpg,1,1.4302,1
5,1,147,2,67,1,63, man092.jpg, cue_2.jpg,1,1.2597,1
5,1,154,2,74,1,129, man171.jpg, cue_2.jpg,1,0.7912,1
5,1,155,2,75,1,95, man130.jpg, cue_2.jpg,1,0.9509,1
5,1,158,2,78,1,213, man297.jpg, cue_2.jpg,1,1.2344,1
5,1,159,2,79,1,218, man303.jpg, cue_2.jpg,1,0.6868,1
5,1,91,2,11,2,175, man238.jpg, cue_4.jpg,2,1.0027,1
5,1,92,2,12,2,61, man089.jpg, cue_4.jpg,2,1.0093,1
5,1,96,2,16,2,240, man336.jpg, cue_4.jpg,2,1.1118,1
5,1,98,2,18,2,107, man147.jpg, cue_4.jpg,2,1.035,1
5,1,107,2,27,2,198, man273.jpg, cue_4.jpg,2,0.789,1
5,1,108,2,28,2,39, man060.jpg, cue_4.jpg,2,1.0768,1
5,1,109,2,29,2,190, man257.jpg, cue_4.jpg,2,0.8399,1
5,1,111,2,31,2,88, man122.jpg, cue_4.jpg,2,0.9783,1
5,1,114,2,34,2,206, man283.jpg, cue_4.jpg,2,0.9206,1
5,1,116,2,36,2,35, man056.jpg, cue_4.jpg,2,0.8235,1
5,1,119,2,39,2,235, man328.jpg, cue_4.jpg,2,1.0736,1
5,1,128,2,48,2,55, man079.jpg, cue_4.jpg,2,1.0022,1
5,1,140,2,60,2,72, man104.jpg, cue_4.jpg,2,0.8795,1
5,1,142,2,62,2,207, man284.jpg, cue_4.jpg,2,1.564,1
5,1,143,2,63,2,180, man245.jpg, cue_4.jpg,2,0.8256,1
5,1,145,2,65,2,29, man047.jpg, cue_4.jpg,2,1.2277,1
5,1,148,2,68,2,37, man058.jpg, cue_4.jpg,2,1.3036,1
5,1,149,2,69,2,237, man330.jpg, cue_4.jpg,2,1.2808,1
5,1,152,2,72,2,56, man082.jpg, cue_4.jpg,2,0.8585,1
5,1,153,2,73,2,156, man207.jpg, cue_4.jpg,2,1.143,1
5,1,81,2,1,3,53, man077.jpg, cue_1.jpg,3,0.9938,1
5,1,85,2,5,3,79, man111.jpg, cue_1.jpg,3,0.8525,1
5,1,87,2,7,3,96, man131.jpg, cue_1.jpg,3,0.7774,1
5,1,89,2,9,3,102, man138.jpg, cue_1.jpg,3,1.1286,1
5,1,90,2,10,3,2, man004.jpg, cue_1.jpg,3,0.7458,1
5,1,95,2,15,3,148, man197.jpg, cue_1.jpg,3,0.7758,1
5,1,113,2,33,3,166, man223.jpg, cue_1.jpg,3,1.1309,1
5,1,117,2,37,3,238, man332.jpg, cue_1.jpg,3,0.8373,1
5,1,121,2,41,3,197, man271.jpg, cue_1.jpg,3,0.7573,1
5,1,126,2,46,3,26, man042.jpg, cue_1.jpg,3,0.7236,1
5,1,130,2,50,3,70, man101.jpg, cue_1.jpg,3,1.105,1
5,1,131,2,51,3,200, man276.jpg, cue_1.jpg,3,0.7548,1
5,1,132,2,52,3,195, man267.jpg, cue_1.jpg,3,0.723,1
5,1,133,2,53,3,10, man017.jpg, cue_1.jpg,3,0.6304,1
5,1,134,2,54,3,130, man172.jpg, cue_1.jpg,3,0.9718,1
5,1,137,2,57,3,219, man304.jpg, cue_1.jpg,3,0.7321,1
5,1,138,2,58,3,141, man187.jpg, cue_1.jpg,3,1.0056,1
5,1,141,2,61,3,94, man129.jpg, cue_1.jpg,3,1.0979,1
5,1,150,2,70,3,105, man144.jpg, cue_1.jpg,3,0.8904,1
5,1,157,2,77,3,165, man222.jpg, cue_1.jpg,3,1.2046,1
5,1,84,2,4,4,19, man032.jpg, cue_3.jpg,4,0.6563,1
5,1,86,2,6,4,75, man107.jpg, cue_3.jpg,4,1.3302,1
5,1,93,2,13,4,203, man279.jpg, cue_3.jpg,4,0.9829,1
5,1,94,2,14,4,220, man305.jpg, cue_3.jpg,4,0.9098,1
5,1,100,2,20,4,59, man086.jpg, cue_3.jpg,4,0.7839,1
5,1,102,2,22,4,163, man217.jpg, cue_3.jpg,4,0.7197,1
5,1,103,2,23,4,230, man316.jpg, cue_3.jpg,4,0.8022,1
5,1,105,2,25,4,78, man110.jpg, cue_3.jpg,4,1.144,1
5,1,106,2,26,4,137, man183.jpg, cue_3.jpg,4,0.8402,1
5,1,110,2,30,4,92, man126.jpg, cue_3.jpg,4,0.821,1
5,1,115,2,35,4,54, man078.jpg, cue_3.jpg,4,0.6926,1
5,1,122,2,42,4,65, man094.jpg, cue_3.jpg,4,0.7579,1
5,1,123,2,43,4,33, man054.jpg, cue_3.jpg,4,1.3019,1
5,1,124,2,44,4,136, man182.jpg, cue_3.jpg,4,0.9118,1
5,1,135,2,55,4,57, man084.jpg, cue_3.jpg,4,0.7225,1
5,1,139,2,59,4,71, man102.jpg, cue_3.jpg,4,0.884,1
5,1,146,2,66,4,226, man312.jpg, cue_3.jpg,4,1.0634,1
5,1,151,2,71,4,42, man063.jpg, cue_3.jpg,4,1.0135,1
5,1,156,2,76,4,73, man105.jpg, cue_3.jpg,4,1.0393,1
5,1,160,2,80,4,202, man278.jpg, cue_3.jpg,4,1.1375,1
5,1,167,3,7,1,193, man260.jpg, cue_2.jpg,1,0.6257,1
5,1,169,3,9,1,12, man022.jpg, cue_2.jpg,1,0.711,1
5,1,170,3,10,1,63, man092.jpg, cue_2.jpg,1,0.6489,1
5,1,171,3,11,1,218, man303.jpg, cue_2.jpg,1,0.6862,1
5,1,178,3,18,1,95, man130.jpg, cue_2.jpg,1,0.6416,1
5,1,181,3,21,1,169, man230.jpg, cue_2.jpg,1,0.9281,1
5,1,182,3,22,1,129, man171.jpg, cue_2.jpg,1,0.6798,1
5,1,184,3,24,1,68, man099.jpg, cue_2.jpg,1,0.6577,1
5,1,187,3,27,1,155, man206.jpg, cue_2.jpg,1,0.6276,1
5,1,191,3,31,1,194, man262.jpg, cue_2.jpg,1,0.6651,1
5,1,195,3,35,1,76, man108.jpg, cue_2.jpg,1,0.6655,1
5,1,198,3,38,1,213, man297.jpg, cue_2.jpg,1,0.6891,1
5,1,217,3,57,1,142, man188.jpg, cue_2.jpg,1,0.6831,1
5,1,218,3,58,1,222, man307.jpg, cue_2.jpg,1,0.6867,1
5,1,224,3,64,1,128, man170.jpg, cue_2.jpg,1,0.7656,1
5,1,227,3,67,1,3, man005.jpg, cue_2.jpg,1,0.9153,1
5,1,231,3,71,1,106, man145.jpg, cue_2.jpg,1,0.6871,1
5,1,233,3,73,1,50, man073.jpg, cue_2.jpg,1,0.6463,1
5,1,236,3,76,1,164, man221.jpg, cue_2.jpg,1,0.6642,1
5,1,239,3,79,1,212, man296.jpg, cue_2.jpg,1,0.5899,1
5,1,161,3,1,2,61, man089.jpg, cue_4.jpg,2,0.6905,1
5,1,164,3,4,2,190, man257.jpg, cue_4.jpg,2,0.7361,1
5,1,177,3,17,2,39, man060.jpg, cue_4.jpg,2,0.9374,1
5,1,185,3,25,2,29, man047.jpg, cue_4.jpg,2,0.7903,1
5,1,189,3,29,2,175, man238.jpg, cue_4.jpg,2,0.7191,1
5,1,190,3,30,2,107, man147.jpg, cue_4.jpg,2,0.9772,1
5,1,192,3,32,2,55, man079.jpg, cue_4.jpg,2,0.6853,1
5,1,193,3,33,2,88, man122.jpg, cue_4.jpg,2,0.6571,1
5,1,196,3,36,2,198, man273.jpg, cue_4.jpg,2,0.7815,1
5,1,202,3,42,2,35, man056.jpg, cue_4.jpg,2,0.6881,1
5,1,206,3,46,2,56, man082.jpg, cue_4.jpg,2,0.6856,1
5,1,209,3,49,2,207, man284.jpg, cue_4.jpg,4,0.7563,0
5,1,210,3,50,2,235, man328.jpg, cue_4.jpg,2,0.7611,1
5,1,215,3,55,2,240, man336.jpg, cue_4.jpg,2,0.7255,1
5,1,223,3,63,2,37, man058.jpg, cue_4.jpg,2,0.6492,1
5,1,228,3,68,2,237, man330.jpg, cue_4.jpg,2,0.8131,1
5,1,229,3,69,2,72, man104.jpg, cue_4.jpg,2,0.6807,1
5,1,230,3,70,2,156, man207.jpg, cue_4.jpg,2,0.751,1
5,1,232,3,72,2,206, man283.jpg, cue_4.jpg,2,0.6744,1
5,1,238,3,78,2,180, man245.jpg, cue_4.jpg,2,0.7463,1
5,1,166,3,6,3,197, man271.jpg, cue_1.jpg,3,0.6856,1
5,1,172,3,12,3,219, man304.jpg, cue_1.jpg,3,0.6255,1
5,1,174,3,14,3,195, man267.jpg, cue_1.jpg,3,0.6996,1
5,1,176,3,16,3,141, man187.jpg, cue_1.jpg,3,0.6943,1
5,1,180,3,20,3,26, man042.jpg, cue_1.jpg,3,0.652,1
5,1,183,3,23,3,10, man017.jpg, cue_1.jpg,3,0.6363,1
5,1,194,3,34,3,238, man332.jpg, cue_1.jpg,3,0.662,1
5,1,197,3,37,3,105, man144.jpg, cue_1.jpg,3,0.6522,1
5,1,201,3,41,3,200, man276.jpg, cue_1.jpg,3,0.5995,1
5,1,203,3,43,3,96, man131.jpg, cue_1.jpg,3,0.6594,1
5,1,204,3,44,3,165, man222.jpg, cue_1.jpg,3,0.6637,1
5,1,208,3,48,3,70, man101.jpg, cue_1.jpg,3,0.8725,1
5,1,212,3,52,3,166, man223.jpg, cue_1.jpg,3,0.7195,1
5,1,213,3,53,3,53, man077.jpg, cue_1.jpg,3,1.074,1
5,1,216,3,56,3,102, man138.jpg, cue_1.jpg,3,0.6949,1
5,1,219,3,59,3,2, man004.jpg, cue_1.jpg,3,0.7536,1
5,1,220,3,60,3,79, man111.jpg, cue_1.jpg,3,0.8026,1
5,1,221,3,61,3,130, man172.jpg, cue_1.jpg,3,0.6252,1
5,1,237,3,77,3,148, man197.jpg, cue_1.jpg,3,0.748,1
5,1,240,3,80,3,94, man129.jpg, cue_1.jpg,3,0.6294,1
5,1,162,3,2,4,226, man312.jpg, cue_3.jpg,4,0.6612,1
5,1,163,3,3,4,137, man183.jpg, cue_3.jpg,4,0.618,1
5,1,165,3,5,4,33, man054.jpg, cue_3.jpg,4,0.8497,1
5,1,168,3,8,4,92, man126.jpg, cue_3.jpg,4,0.7916,1
5,1,173,3,13,4,54, man078.jpg, cue_3.jpg,4,0.6636,1
5,1,175,3,15,4,202, man278.jpg, cue_3.jpg,4,0.5897,1
5,1,179,3,19,4,65, man094.jpg, cue_3.jpg,4,0.6468,1
5,1,186,3,26,4,203, man279.jpg, cue_3.jpg,4,1.2064,1
5,1,188,3,28,4,78, man110.jpg, cue_3.jpg,4,0.6502,1
5,1,199,3,39,4,163, man217.jpg, cue_3.jpg,4,0.6611,1
5,1,200,3,40,4,42, man063.jpg, cue_3.jpg,4,0.793,1
5,1,205,3,45,4,136, man182.jpg, cue_3.jpg,4,0.7487,1
5,1,207,3,47,4,75, man107.jpg, cue_3.jpg,4,0.5923,1
5,1,211,3,51,4,220, man305.jpg, cue_3.jpg,4,0.6506,1
5,1,214,3,54,4,71, man102.jpg, cue_3.jpg,4,1.1414,1
5,1,222,3,62,4,73, man105.jpg, cue_3.jpg,4,0.7272,1
5,1,225,3,65,4,57, man084.jpg, cue_3.jpg,4,0.7797,1
5,1,226,3,66,4,19, man032.jpg, cue_3.jpg,4,0.6204,1
5,1,234,3,74,4,59, man086.jpg, cue_3.jpg,4,0.587,1
5,1,235,3,75,4,230, man316.jpg, cue_3.jpg,4,0.6589,1
5,1,252,4,12,1,106, man145.jpg, cue_2.jpg,1,0.7279,1
5,1,255,4,15,1,142, man188.jpg, cue_2.jpg,1,0.8671,1
5,1,257,4,17,1,3, man005.jpg, cue_2.jpg,1,0.7581,1
5,1,259,4,19,1,212, man296.jpg, cue_2.jpg,1,0.6837,1
5,1,260,4,20,1,129, man171.jpg, cue_2.jpg,1,0.7198,1
5,1,263,4,23,1,213, man297.jpg, cue_2.jpg,1,0.7223,1
5,1,265,4,25,1,63, man092.jpg, cue_2.jpg,1,0.5999,1
5,1,268,4,28,1,68, man099.jpg, cue_2.jpg,1,1.0433,1
5,1,269,4,29,1,164, man221.jpg, cue_2.jpg,1,1.0159,1
5,1,282,4,42,1,12, man022.jpg, cue_2.jpg,1,0.7707,1
5,1,284,4,44,1,193, man260.jpg, cue_2.jpg,1,0.69,1
5,1,289,4,49,1,76, man108.jpg, cue_2.jpg,1,0.7047,1
5,1,293,4,53,1,222, man307.jpg, cue_2.jpg,1,0.6362,1
5,1,297,4,57,1,128, man170.jpg, cue_2.jpg,1,0.6828,1
5,1,299,4,59,1,218, man303.jpg, cue_2.jpg,1,0.5911,1
5,1,300,4,60,1,155, man206.jpg, cue_2.jpg,1,0.6,1
5,1,304,4,64,1,50, man073.jpg, cue_2.jpg,1,0.6429,1
5,1,305,4,65,1,169, man230.jpg, cue_2.jpg,1,0.6323,1
5,1,310,4,70,1,95, man130.jpg, cue_2.jpg,1,0.6923,1
5,1,313,4,73,1,194, man262.jpg, cue_2.jpg,1,0.562,1
5,1,244,4,4,2,198, man273.jpg, cue_4.jpg,2,0.7367,1
5,1,249,4,9,2,88, man122.jpg, cue_4.jpg,2,0.7459,1
5,1,258,4,18,2,37, man058.jpg, cue_4.jpg,2,0.647,1
5,1,267,4,27,2,240, man336.jpg, cue_4.jpg,2,1.1552,1
5,1,272,4,32,2,180, man245.jpg, cue_4.jpg,2,0.8835,1
5,1,273,4,33,2,35, man056.jpg, cue_4.jpg,2,0.6542,1
5,1,274,4,34,2,235, man328.jpg, cue_4.jpg,2,0.8991,1
5,1,275,4,35,2,156, man207.jpg, cue_4.jpg,2,0.7498,1
5,1,277,4,37,2,61, man089.jpg, cue_4.jpg,2,0.7345,1
5,1,279,4,39,2,190, man257.jpg, cue_4.jpg,2,0.7523,1
5,1,280,4,40,2,207, man284.jpg, cue_4.jpg,2,0.8011,1
5,1,281,4,41,2,29, man047.jpg, cue_4.jpg,2,0.6707,1
5,1,288,4,48,2,107, man147.jpg, cue_4.jpg,2,0.8562,1
5,1,295,4,55,2,39, man060.jpg, cue_4.jpg,2,1.1757,1
5,1,298,4,58,2,55, man079.jpg, cue_4.jpg,2,0.7177,1
5,1,307,4,67,2,56, man082.jpg, cue_4.jpg,2,0.66,1
5,1,309,4,69,2,175, man238.jpg, cue_4.jpg,2,0.6213,1
5,1,315,4,75,2,237, man330.jpg, cue_4.jpg,2,0.656,1
5,1,317,4,77,2,72, man104.jpg, cue_4.jpg,2,0.6938,1
5,1,319,4,79,2,206, man283.jpg, cue_4.jpg,2,0.6207,1
5,1,241,4,1,3,96, man131.jpg, cue_1.jpg,3,0.6572,1
5,1,243,4,3,3,102, man138.jpg, cue_1.jpg,3,0.7193,1
5,1,246,4,6,3,130, man172.jpg, cue_1.jpg,3,0.6327,1
5,1,247,4,7,3,200, man276.jpg, cue_1.jpg,3,0.6223,1
5,1,248,4,8,3,2, man004.jpg, cue_1.jpg,3,0.6281,1
5,1,250,4,10,3,94, man129.jpg, cue_1.jpg,3,0.6025,1
5,1,251,4,11,3,53, man077.jpg, cue_1.jpg,3,0.6226,1
5,1,253,4,13,3,197, man271.jpg, cue_1.jpg,3,0.6497,1
5,1,276,4,36,3,195, man267.jpg, cue_1.jpg,3,0.7505,1
5,1,278,4,38,3,238, man332.jpg, cue_1.jpg,3,0.7522,1
5,1,283,4,43,3,79, man111.jpg, cue_1.jpg,3,0.7703,1
5,1,285,4,45,3,70, man101.jpg, cue_1.jpg,3,0.7257,1
5,1,286,4,46,3,219, man304.jpg, cue_1.jpg,3,0.8552,1
5,1,290,4,50,3,166, man223.jpg, cue_1.jpg,3,0.8555,1
5,1,291,4,51,3,26, man042.jpg, cue_1.jpg,3,0.6431,1
5,1,294,4,54,3,165, man222.jpg, cue_1.jpg,3,0.6263,1
5,1,308,4,68,3,148, man197.jpg, cue_1.jpg,3,0.6488,1
5,1,312,4,72,3,10, man017.jpg, cue_1.jpg,3,0.6371,1
5,1,314,4,74,3,105, man144.jpg, cue_1.jpg,3,0.6511,1
5,1,318,4,78,3,141, man187.jpg, cue_1.jpg,3,0.6805,1
5,1,242,4,2,4,203, man279.jpg, cue_3.jpg,4,0.5991,1
5,1,245,4,5,4,59, man086.jpg, cue_3.jpg,4,0.6095,1
5,1,254,4,14,4,230, man316.jpg, cue_3.jpg,4,0.6548,1
5,1,256,4,16,4,71, man102.jpg, cue_3.jpg,4,0.5896,1
5,1,261,4,21,4,65, man094.jpg, cue_3.jpg,4,0.9134,1
5,1,262,4,22,4,137, man183.jpg, cue_3.jpg,4,0.6196,1
5,1,264,4,24,4,226, man312.jpg, cue_3.jpg,4,0.6593,1
5,1,266,4,26,4,33, man054.jpg, cue_3.jpg,4,0.6551,1
5,1,270,4,30,4,75, man107.jpg, cue_3.jpg,4,0.6365,1
5,1,271,4,31,4,163, man217.jpg, cue_3.jpg,4,0.7549,1
5,1,287,4,47,4,19, man032.jpg, cue_3.jpg,4,0.6927,1
5,1,292,4,52,4,92, man126.jpg, cue_3.jpg,4,0.6646,1
5,1,296,4,56,4,73, man105.jpg, cue_3.jpg,4,0.6953,1
5,1,301,4,61,4,54, man078.jpg, cue_3.jpg,4,0.6548,1
5,1,302,4,62,4,57, man084.jpg, cue_3.jpg,4,0.5958,1
5,1,303,4,63,4,220, man305.jpg, cue_3.jpg,4,0.5861,1
5,1,306,4,66,4,78, man110.jpg, cue_3.jpg,4,0.6221,1
5,1,311,4,71,4,202, man278.jpg, cue_3.jpg,4,0.6317,1
5,1,316,4,76,4,42, man063.jpg, cue_3.jpg,4,0.7573,1
5,1,320,4,80,4,136, man182.jpg, cue_3.jpg,4,0.627,1
6,1,1,1,1,1,25, man041.jpg, cue_2.jpg,3,1.6667,0
6,1,2,1,2,1,233, man326.jpg, cue_2.jpg,3,1.9382,0
6,1,7,1,7,1,167, man228.jpg, cue_2.jpg,1,1.2155,1
6,1,12,1,12,1,83, man115.jpg, cue_2.jpg,1,1.4205,1
6,1,14,1,14,1,124, man166.jpg, cue_2.jpg,4,1.322,0
6,1,15,1,15,1,50, man073.jpg, cue_2.jpg,1,1.6252,1
6,1,22,1,22,1,217, man302.jpg, cue_2.jpg,2,1.4402,0
6,1,23,1,23,1,43, man064.jpg, cue_2.jpg,1,1.1453,1
6,1,30,1,30,1,6, man013.jpg, cue_2.jpg,1,1.0289,1
6,1,51,1,51,1,37, man058.jpg, cue_2.jpg,4,1.5061,0
6,1,57,1,57,1,184, man249.jpg, cue_2.jpg,4,1.8667,0
6,1,60,1,60,1,18, man031.jpg, cue_2.jpg,3,1.773,0
6,1,62,1,62,1,5, man010.jpg, cue_2.jpg,1,0.9822,1
6,1,63,1,63,1,173, man236.jpg, cue_2.jpg,4,1.261,0
6,1,64,1,64,1,141, man187.jpg, cue_2.jpg,1,1.4869,1
6,1,65,1,65,1,93, man128.jpg, cue_2.jpg,1,1.2646,1
6,1,69,1,69,1,115, man157.jpg, cue_2.jpg,1,0.9719,1
6,1,75,1,75,1,163, man217.jpg, cue_2.jpg,1,1.6592,1
6,1,76,1,76,1,178, man242.jpg, cue_2.jpg,1,1.0792,1
6,1,80,1,80,1,1, man002.jpg, cue_2.jpg,2,1.0833,0
6,1,6,1,6,2,205, man282.jpg, cue_4.jpg,4,2.3635,0
6,1,8,1,8,2,31, man050.jpg, cue_4.jpg,7,0,0
6,1,10,1,10,2,4, man007.jpg, cue_4.jpg,7,0,0
6,1,19,1,19,2,170, man231.jpg, cue_4.jpg,2,1.3337,1
6,1,20,1,20,2,138, man184.jpg, cue_4.jpg,4,1.4541,0
6,1,26,1,26,2,9, man016.jpg, cue_4.jpg,2,1.2608,1
6,1,28,1,28,2,12, man022.jpg, cue_4.jpg,2,1.2453,1
6,1,37,1,37,2,203, man279.jpg, cue_4.jpg,1,1.3516,0
6,1,43,1,43,2,189, man255.jpg, cue_4.jpg,2,0.8594,1
6,1,47,1,47,2,67, man096.jpg, cue_4.jpg,4,1.6404,0
6,1,48,1,48,2,48, man071.jpg, cue_4.jpg,1,1.1757,0
6,1,56,1,56,2,166, man223.jpg, cue_4.jpg,2,2.0089,1
6,1,61,1,61,2,160, man212.jpg, cue_4.jpg,2,0.968,1
6,1,66,1,66,2,228, man314.jpg, cue_4.jpg,4,1.676,0
6,1,67,1,67,2,229, man315.jpg, cue_4.jpg,2,1.1,1
6,1,68,1,68,2,154, man205.jpg, cue_4.jpg,4,1.3394,0
6,1,70,1,70,2,139, man185.jpg, cue_4.jpg,2,1.7149,1
6,1,73,1,73,2,99, man135.jpg, cue_4.jpg,2,1.1179,1
6,1,74,1,74,2,128, man170.jpg, cue_4.jpg,4,1.3592,0
6,1,77,1,77,2,117, man159.jpg, cue_4.jpg,1,1.9937,0
6,1,4,1,4,3,145, man191.jpg, cue_1.jpg,3,1.6067,1
6,1,5,1,5,3,64, man093.jpg, cue_1.jpg,3,2.0504,1
6,1,13,1,13,3,11, man019.jpg, cue_1.jpg,1,1.4407,0
6,1,16,1,16,3,15, man025.jpg, cue_1.jpg,3,1.2055,1
6,1,17,1,17,3,149, man198.jpg, cue_1.jpg,4,1.3458,0
6,1,18,1,18,3,212, man296.jpg, cue_1.jpg,3,1.4083,1
6,1,24,1,24,3,86, man120.jpg, cue_1.jpg,4,2.0886,0
6,1,27,1,27,3,210, man291.jpg, cue_1.jpg,3,2.077,1
6,1,29,1,29,3,98, man134.jpg, cue_1.jpg,4,1.1509,0
6,1,31,1,31,3,94, man129.jpg, cue_1.jpg,3,1.1453,1
6,1,32,1,32,3,168, man229.jpg, cue_1.jpg,2,1.3853,0
6,1,35,1,35,3,87, man121.jpg, cue_1.jpg,3,1.5549,1
6,1,36,1,36,3,237, man330.jpg, cue_1.jpg,3,1.7032,1
6,1,40,1,40,3,110, man152.jpg, cue_1.jpg,1,1.2153,0
6,1,44,1,44,3,208, man287.jpg, cue_1.jpg,3,1.6556,1
6,1,52,1,52,3,232, man322.jpg, cue_1.jpg,4,1.3999,0
6,1,54,1,54,3,52, man076.jpg, cue_1.jpg,3,2.1305,1
6,1,55,1,55,3,56, man082.jpg, cue_1.jpg,4,1.8232,0
6,1,72,1,72,3,114, man156.jpg, cue_1.jpg,3,1.4178,1
6,1,79,1,79,3,127, man169.jpg, cue_1.jpg,3,1.331,1
6,1,3,1,3,4,176, man240.jpg, cue_3.jpg,4,1.1428,1
6,1,9,1,9,4,235, man328.jpg, cue_3.jpg,1,2.345,0
6,1,11,1,11,4,95, man130.jpg, cue_3.jpg,1,1.2745,0
6,1,21,1,21,4,218, man303.jpg, cue_3.jpg,4,0.9348,1
6,1,25,1,25,4,155, man206.jpg, cue_3.jpg,4,1.0308,1
6,1,33,1,33,4,49, man072.jpg, cue_3.jpg,4,1.7972,1
6,1,34,1,34,4,55, man079.jpg, cue_3.jpg,4,0.9371,1
6,1,38,1,38,4,45, man067.jpg, cue_3.jpg,4,1.637,1
6,1,39,1,39,4,231, man321.jpg, cue_3.jpg,4,1.9368,1
6,1,41,1,41,4,193, man260.jpg, cue_3.jpg,4,1.0262,1
6,1,42,1,42,4,164, man221.jpg, cue_3.jpg,4,1.43,1
6,1,45,1,45,4,26, man042.jpg, cue_3.jpg,1,1.6666,0
6,1,46,1,46,4,105, man144.jpg, cue_3.jpg,2,1.9221,0
6,1,49,1,49,4,216, man301.jpg, cue_3.jpg,3,2.0295,0
6,1,50,1,50,4,14, man024.jpg, cue_3.jpg,4,1.0537,1
6,1,53,1,53,4,204, man281.jpg, cue_3.jpg,4,1.1716,1
6,1,58,1,58,4,62, man091.jpg, cue_3.jpg,4,1.2826,1
6,1,59,1,59,4,82, man114.jpg, cue_3.jpg,4,0.7803,1
6,1,71,1,71,4,85, man118.jpg, cue_3.jpg,4,1.5799,1
6,1,78,1,78,4,198, man273.jpg, cue_3.jpg,4,1.3891,1
6,1,81,2,1,1,167, man228.jpg, cue_2.jpg,1,1.0949,1
6,1,86,2,6,1,173, man236.jpg, cue_2.jpg,1,0.7569,1
6,1,90,2,10,1,124, man166.jpg, cue_2.jpg,1,1.0691,1
6,1,91,2,11,1,233, man326.jpg, cue_2.jpg,1,0.8482,1
6,1,98,2,18,1,37, man058.jpg, cue_2.jpg,1,1.1298,1
6,1,99,2,19,1,83, man115.jpg, cue_2.jpg,4,1.2583,0
6,1,103,2,23,1,25, man041.jpg, cue_2.jpg,1,0.8096,1
6,1,112,2,32,1,6, man013.jpg, cue_2.jpg,1,0.7504,1
6,1,115,2,35,1,18, man031.jpg, cue_2.jpg,1,1.1,1
6,1,122,2,42,1,178, man242.jpg, cue_2.jpg,1,0.692,1
6,1,124,2,44,1,163, man217.jpg, cue_2.jpg,1,1.376,1
6,1,131,2,51,1,184, man249.jpg, cue_2.jpg,1,0.8779,1
6,1,132,2,52,1,43, man064.jpg, cue_2.jpg,1,0.7604,1
6,1,135,2,55,1,93, man128.jpg, cue_2.jpg,1,0.6797,1
6,1,144,2,64,1,50, man073.jpg, cue_2.jpg,2,0.7328,0
6,1,146,2,66,1,5, man010.jpg, cue_2.jpg,1,0.7523,1
6,1,147,2,67,1,1, man002.jpg, cue_2.jpg,1,1.1383,1
6,1,150,2,70,1,115, man157.jpg, cue_2.jpg,1,1.0476,1
6,1,154,2,74,1,141, man187.jpg, cue_2.jpg,1,1.2388,1
6,1,157,2,77,1,217, man302.jpg, cue_2.jpg,2,1.6176,0
6,1,83,2,3,2,228, man314.jpg, cue_4.jpg,2,1.4607,1
6,1,84,2,4,2,139, man185.jpg, cue_4.jpg,2,0.7117,1
6,1,89,2,9,2,205, man282.jpg, cue_4.jpg,2,1.032,1
6,1,96,2,16,2,99, man135.jpg, cue_4.jpg,2,0.7847,1
6,1,104,2,24,2,229, man315.jpg, cue_4.jpg,2,0.7444,1
6,1,108,2,28,2,117, man159.jpg, cue_4.jpg,4,1.122,0
6,1,110,2,30,2,4, man007.jpg, cue_4.jpg,2,0.7847,1
6,1,113,2,33,2,12, man022.jpg, cue_4.jpg,2,1.4229,1
6,1,117,2,37,2,189, man255.jpg, cue_4.jpg,2,1.0366,1
6,1,118,2,38,2,154, man205.jpg, cue_4.jpg,2,1.9706,1
6,1,121,2,41,2,203, man279.jpg, cue_4.jpg,2,0.7899,1
6,1,123,2,43,2,67, man096.jpg, cue_4.jpg,4,1.0798,0
6,1,125,2,45,2,31, man050.jpg, cue_4.jpg,2,0.7902,1
6,1,126,2,46,2,128, man170.jpg, cue_4.jpg,2,1.0788,1
6,1,127,2,47,2,160, man212.jpg, cue_4.jpg,2,0.7124,1
6,1,138,2,58,2,138, man184.jpg, cue_4.jpg,2,0.8268,1
6,1,141,2,61,2,48, man071.jpg, cue_4.jpg,2,0.6827,1
6,1,143,2,63,2,166, man223.jpg, cue_4.jpg,2,1.2319,1
6,1,148,2,68,2,9, man016.jpg, cue_4.jpg,4,1.5856,0
6,1,155,2,75,2,170, man231.jpg, cue_4.jpg,2,0.787,1
6,1,82,2,2,3,145, man191.jpg, cue_1.jpg,3,0.9062,1
6,1,85,2,5,3,110, man152.jpg, cue_1.jpg,3,1.2576,1
6,1,88,2,8,3,64, man093.jpg, cue_1.jpg,2,1.2704,0
6,1,92,2,12,3,237, man330.jpg, cue_1.jpg,3,0.9886,1
6,1,94,2,14,3,15, man025.jpg, cue_1.jpg,3,0.8819,1
6,1,97,2,17,3,56, man082.jpg, cue_1.jpg,3,0.9096,1
6,1,111,2,31,3,11, man019.jpg, cue_1.jpg,3,1.5837,1
6,1,114,2,34,3,149, man198.jpg, cue_1.jpg,3,1.3316,1
6,1,116,2,36,3,98, man134.jpg, cue_1.jpg,3,0.7658,1
6,1,119,2,39,3,168, man229.jpg, cue_1.jpg,3,1.4237,1
6,1,120,2,40,3,114, man156.jpg, cue_1.jpg,3,0.7571,1
6,1,128,2,48,3,232, man322.jpg, cue_1.jpg,3,0.8743,1
6,1,129,2,49,3,212, man296.jpg, cue_1.jpg,3,0.7109,1
6,1,134,2,54,3,127, man169.jpg, cue_1.jpg,3,0.8263,1
6,1,136,2,56,3,208, man287.jpg, cue_1.jpg,3,1.003,1
6,1,149,2,69,3,94, man129.jpg, cue_1.jpg,3,0.7426,1
6,1,152,2,72,3,86, man120.jpg, cue_1.jpg,3,1.0913,1
6,1,153,2,73,3,87, man121.jpg, cue_1.jpg,3,0.7408,1
6,1,156,2,76,3,210, man291.jpg, cue_1.jpg,3,0.7698,1
6,1,158,2,78,3,52, man076.jpg, cue_1.jpg,4,0.8994,0
6,1,87,2,7,4,105, man144.jpg, cue_3.jpg,4,1.1411,1
6,1,93,2,13,4,55, man079.jpg, cue_3.jpg,4,0.787,1
6,1,95,2,15,4,176, man240.jpg, cue_3.jpg,4,0.7176,1
6,1,100,2,20,4,85, man118.jpg, cue_3.jpg,4,1.1644,1
6,1,101,2,21,4,216, man301.jpg, cue_3.jpg,4,1.0987,1
6,1,102,2,22,4,26, man042.jpg, cue_3.jpg,4,0.8458,1
6,1,105,2,25,4,193, man260.jpg, cue_3.jpg,4,0.7757,1
6,1,106,2,26,4,155, man206.jpg, cue_3.jpg,4,0.6793,1
6,1,107,2,27,4,14, man024.jpg, cue_3.jpg,4,0.62,1
6,1,109,2,29,4,164, man221.jpg, cue_3.jpg,4,0.9685,1
6,1,130,2,50,4,198, man273.jpg, cue_3.jpg,4,1.033,1
6,1,133,2,53,4,82, man114.jpg, cue_3.jpg,4,0.7119,1
6,1,137,2,57,4,235, man328.jpg, cue_3.jpg,4,0.8967,1
6,1,139,2,59,4,62, man091.jpg, cue_3.jpg,4,0.7274,1
6,1,140,2,60,4,231, man321.jpg, cue_3.jpg,4,0.746,1
6,1,142,2,62,4,218, man303.jpg, cue_3.jpg,4,0.7184,1
6,1,145,2,65,4,45, man067.jpg, cue_3.jpg,4,0.8354,1
6,1,151,2,71,4,95, man130.jpg, cue_3.jpg,2,1.4998,0
6,1,159,2,79,4,204, man281.jpg, cue_3.jpg,4,0.7563,1
6,1,160,2,80,4,49, man072.jpg, cue_3.jpg,4,0.9162,1
6,1,161,3,1,1,1, man002.jpg, cue_2.jpg,1,1.064,1
6,1,170,3,10,1,83, man115.jpg, cue_2.jpg,1,1.2315,1
6,1,177,3,17,1,43, man064.jpg, cue_2.jpg,1,1.1747,1
6,1,187,3,27,1,163, man217.jpg, cue_2.jpg,1,0.7484,1
6,1,188,3,28,1,141, man187.jpg, cue_2.jpg,3,0.7811,0
6,1,189,3,29,1,25, man041.jpg, cue_2.jpg,1,0.7536,1
6,1,195,3,35,1,184, man249.jpg, cue_2.jpg,1,0.6918,1
6,1,196,3,36,1,167, man228.jpg, cue_2.jpg,1,0.7443,1
6,1,198,3,38,1,217, man302.jpg, cue_2.jpg,2,1.7047,0
6,1,199,3,39,1,50, man073.jpg, cue_2.jpg,1,1.5128,1
6,1,200,3,40,1,6, man013.jpg, cue_2.jpg,1,0.6164,1
6,1,208,3,48,1,173, man236.jpg, cue_2.jpg,1,0.6596,1
6,1,209,3,49,1,233, man326.jpg, cue_2.jpg,1,0.6961,1
6,1,217,3,57,1,178, man242.jpg, cue_2.jpg,1,0.7169,1
6,1,220,3,60,1,18, man031.jpg, cue_2.jpg,1,1.5751,1
6,1,228,3,68,1,115, man157.jpg, cue_2.jpg,1,0.6609,1
6,1,230,3,70,1,37, man058.jpg, cue_2.jpg,2,1.5759,0
6,1,232,3,72,1,93, man128.jpg, cue_2.jpg,1,1.0199,1
6,1,236,3,76,1,5, man010.jpg, cue_2.jpg,1,0.7182,1
6,1,240,3,80,1,124, man166.jpg, cue_2.jpg,1,0.7454,1
6,1,163,3,3,2,154, man205.jpg, cue_4.jpg,2,1.1967,1
6,1,166,3,6,2,67, man096.jpg, cue_4.jpg,2,1.7765,1
6,1,168,3,8,2,205, man282.jpg, cue_4.jpg,2,0.8494,1
6,1,171,3,11,2,31, man050.jpg, cue_4.jpg,2,0.8118,1
6,1,174,3,14,2,139, man185.jpg, cue_4.jpg,2,0.7528,1
6,1,178,3,18,2,99, man135.jpg, cue_4.jpg,2,0.9651,1
6,1,179,3,19,2,170, man231.jpg, cue_4.jpg,2,1.1006,1
6,1,182,3,22,2,228, man314.jpg, cue_4.jpg,2,0.8128,1
6,1,194,3,34,2,203, man279.jpg, cue_4.jpg,2,0.7224,1
6,1,204,3,44,2,166, man223.jpg, cue_4.jpg,2,0.8472,1
6,1,205,3,45,2,48, man071.jpg, cue_4.jpg,2,0.6516,1
6,1,211,3,51,2,229, man315.jpg, cue_4.jpg,2,0.7513,1
6,1,213,3,53,2,128, man170.jpg, cue_4.jpg,2,0.8791,1
6,1,219,3,59,2,189, man255.jpg, cue_4.jpg,2,0.7254,1
6,1,223,3,63,2,9, man016.jpg, cue_4.jpg,2,1.4255,1
6,1,224,3,64,2,4, man007.jpg, cue_4.jpg,2,0.6623,1
6,1,226,3,66,2,12, man022.jpg, cue_4.jpg,2,1.1548,1
6,1,227,3,67,2,138, man184.jpg, cue_4.jpg,2,0.7227,1
6,1,229,3,69,2,160, man212.jpg, cue_4.jpg,2,0.7775,1
6,1,233,3,73,2,117, man159.jpg, cue_4.jpg,2,0.961,1
6,1,162,3,2,3,87, man121.jpg, cue_1.jpg,3,0.6984,1
6,1,167,3,7,3,232, man322.jpg, cue_1.jpg,3,0.8873,1
6,1,176,3,16,3,52, man076.jpg, cue_1.jpg,3,1.1753,1
6,1,180,3,20,3,208, man287.jpg, cue_1.jpg,3,0.7646,1
6,1,183,3,23,3,110, man152.jpg, cue_1.jpg,3,0.7277,1
6,1,185,3,25,3,11, man019.jpg, cue_1.jpg,3,0.9158,1
6,1,190,3,30,3,15, man025.jpg, cue_1.jpg,3,1.0424,1
6,1,191,3,31,3,56, man082.jpg, cue_1.jpg,3,0.95,1
6,1,193,3,33,3,98, man134.jpg, cue_1.jpg,3,0.7205,1
6,1,202,3,42,3,86, man120.jpg, cue_1.jpg,3,0.8456,1
6,1,203,3,43,3,168, man229.jpg, cue_1.jpg,3,1.0339,1
6,1,212,3,52,3,94, man129.jpg, cue_1.jpg,3,0.7826,1
6,1,214,3,54,3,210, man291.jpg, cue_1.jpg,3,0.7465,1
6,1,218,3,58,3,237, man330.jpg, cue_1.jpg,3,1.3743,1
6,1,221,3,61,3,212, man296.jpg, cue_1.jpg,3,0.6925,1
6,1,222,3,62,3,114, man156.jpg, cue_1.jpg,3,0.5526,1
6,1,225,3,65,3,64, man093.jpg, cue_1.jpg,1,1.8662,0
6,1,231,3,71,3,127, man169.jpg, cue_1.jpg,3,0.781,1
6,1,237,3,77,3,149, man198.jpg, cue_1.jpg,3,0.6717,1
6,1,238,3,78,3,145, man191.jpg, cue_1.jpg,3,0.7396,1
6,1,164,3,4,4,85, man118.jpg, cue_3.jpg,4,1.067,1
6,1,165,3,5,4,55, man079.jpg, cue_3.jpg,4,0.7191,1
6,1,169,3,9,4,82, man114.jpg, cue_3.jpg,4,0.7346,1
6,1,172,3,12,4,231, man321.jpg, cue_3.jpg,1,1.4176,0
6,1,173,3,13,4,176, man240.jpg, cue_3.jpg,4,0.8693,1
6,1,175,3,15,4,62, man091.jpg, cue_3.jpg,4,0.6584,1
6,1,181,3,21,4,45, man067.jpg, cue_3.jpg,4,0.8145,1
6,1,184,3,24,4,95, man130.jpg, cue_3.jpg,4,0.9385,1
6,1,186,3,26,4,216, man301.jpg, cue_3.jpg,4,0.8132,1
6,1,192,3,32,4,49, man072.jpg, cue_3.jpg,4,0.7519,1
6,1,197,3,37,4,198, man273.jpg, cue_3.jpg,4,0.7442,1
6,1,201,3,41,4,155, man206.jpg, cue_3.jpg,4,0.7988,1
6,1,206,3,46,4,164, man221.jpg, cue_3.jpg,4,0.7204,1
6,1,207,3,47,4,235, man328.jpg, cue_3.jpg,4,0.7543,1
6,1,210,3,50,4,218, man303.jpg, cue_3.jpg,4,0.6834,1
6,1,215,3,55,4,26, man042.jpg, cue_3.jpg,4,0.9704,1
6,1,216,3,56,4,14, man024.jpg, cue_3.jpg,4,0.914,1
6,1,234,3,74,4,204, man281.jpg, cue_3.jpg,4,0.7114,1
6,1,235,3,75,4,105, man144.jpg, cue_3.jpg,4,0.6824,1
6,1,239,3,79,4,193, man260.jpg, cue_3.jpg,4,0.6611,1
6,1,241,4,1,1,43, man064.jpg, cue_2.jpg,1,0.8203,1
6,1,247,4,7,1,124, man166.jpg, cue_2.jpg,1,1.3233,1
6,1,252,4,12,1,233, man326.jpg, cue_2.jpg,1,0.6995,1
6,1,257,4,17,1,1, man002.jpg, cue_2.jpg,1,0.6681,1
6,1,258,4,18,1,5, man010.jpg, cue_2.jpg,1,0.6886,1
6,1,260,4,20,1,163, man217.jpg, cue_2.jpg,1,0.66,1
6,1,267,4,27,1,6, man013.jpg, cue_2.jpg,1,0.5936,1
6,1,268,4,28,1,18, man031.jpg, cue_2.jpg,1,0.7452,1
6,1,269,4,29,1,25, man041.jpg, cue_2.jpg,1,0.6812,1
6,1,275,4,35,1,178, man242.jpg, cue_2.jpg,1,0.7572,1
6,1,280,4,40,1,93, man128.jpg, cue_2.jpg,1,0.6262,1
6,1,283,4,43,1,167, man228.jpg, cue_2.jpg,1,0.7974,1
6,1,285,4,45,1,184, man249.jpg, cue_2.jpg,1,0.6101,1
6,1,294,4,54,1,217, man302.jpg, cue_2.jpg,1,1.7061,1
6,1,296,4,56,1,173, man236.jpg, cue_2.jpg,1,0.6744,1
6,1,302,4,62,1,37, man058.jpg, cue_2.jpg,1,1.2246,1
6,1,306,4,66,1,50, man073.jpg, cue_2.jpg,1,0.879,1
6,1,309,4,69,1,115, man157.jpg, cue_2.jpg,1,0.691,1
6,1,317,4,77,1,141, man187.jpg, cue_2.jpg,1,1.3029,1
6,1,318,4,78,1,83, man115.jpg, cue_2.jpg,1,0.7856,1
6,1,244,4,4,2,154, man205.jpg, cue_4.jpg,2,0.9405,1
6,1,248,4,8,2,170, man231.jpg, cue_4.jpg,2,0.8205,1
6,1,249,4,9,2,128, man170.jpg, cue_4.jpg,2,1.5384,1
6,1,251,4,11,2,189, man255.jpg, cue_4.jpg,2,0.6637,1
6,1,261,4,21,2,166, man223.jpg, cue_4.jpg,2,1.6414,1
6,1,262,4,22,2,9, man016.jpg, cue_4.jpg,2,1.0127,1
6,1,263,4,23,2,203, man279.jpg, cue_4.jpg,2,0.6188,1
6,1,266,4,26,2,31, man050.jpg, cue_4.jpg,2,0.6326,1
6,1,270,4,30,2,138, man184.jpg, cue_4.jpg,2,0.9093,1
6,1,271,4,31,2,12, man022.jpg, cue_4.jpg,2,0.679,1
6,1,272,4,32,2,205, man282.jpg, cue_4.jpg,2,0.6497,1
6,1,277,4,37,2,117, man159.jpg, cue_4.jpg,2,1.0816,1
6,1,278,4,38,2,48, man071.jpg, cue_4.jpg,2,0.6844,1
6,1,286,4,46,2,4, man007.jpg, cue_4.jpg,2,0.6804,1
6,1,291,4,51,2,67, man096.jpg, cue_4.jpg,2,0.9522,1
6,1,292,4,52,2,228, man314.jpg, cue_4.jpg,2,1.009,1
6,1,301,4,61,2,229, man315.jpg, cue_4.jpg,2,0.6607,1
6,1,311,4,71,2,99, man135.jpg, cue_4.jpg,2,1.1941,1
6,1,316,4,76,2,160, man212.jpg, cue_4.jpg,2,0.7254,1
6,1,320,4,80,2,139, man185.jpg, cue_4.jpg,2,0.6918,1
6,1,243,4,3,3,212, man296.jpg, cue_1.jpg,3,1.3131,1
6,1,253,4,13,3,114, man156.jpg, cue_1.jpg,3,0.6545,1
6,1,254,4,14,3,127, man169.jpg, cue_1.jpg,3,0.6269,1
6,1,255,4,15,3,94, man129.jpg, cue_1.jpg,3,0.7131,1
6,1,259,4,19,3,149, man198.jpg, cue_1.jpg,3,0.7562,1
6,1,273,4,33,3,11, man019.jpg, cue_1.jpg,3,1.2638,1
6,1,274,4,34,3,168, man229.jpg, cue_1.jpg,3,0.9072,1
