SN,Btw,Trial,cSrc,cCue,cPE,IMidx,IMname,CueName,Resp,RT,Corr,Conf,cRT,aResp,aRT,aCorr,aConf,aCRT
1,1,1,3,0,0,72, man114.jpg, ,3,2.8133,1,4,2.4871,7,0,7,7,0
1,1,2,1,2,2,38, man066.jpg, cue_2.jpg,1,3.6201,1,4,1.2596,2,4.19,1,4,1.6037
1,1,3,1,2,2,87, man133.jpg, cue_2.jpg,1,5.1754,1,4,0.8765,2,0.6706,1,4,1.7399
1,1,4,2,2,2,95, man145.jpg, cue_2.jpg,2,1.6084,1,4,0.9805,2,0.9271,1,4,0.8034
1,1,5,1,2,2,129, man202.jpg, cue_2.jpg,1,1.415,1,4,0.8911,2,0.5436,1,4,0.4627
1,1,6,3,0,0,240, man422.jpg, ,3,0.9924,1,4,0.6304,7,0,7,7,0
1,1,7,1,3,1,65, man104.jpg, cue_3.jpg,2,2.4971,2,4,1.1442,3,1.2478,1,4,0.7703
1,1,8,1,3,1,71, man112.jpg, cue_3.jpg,2,3.3037,2,4,0.9085,1,0.5434,0,4,0.5573
1,1,9,1,2,2,253, man443.jpg, cue_2.jpg,2,1.933,2,4,0.8903,2,0.704,1,4,2.344
1,1,10,2,3,1,201, man348.jpg, cue_3.jpg,2,4.7154,1,3,2.6134,3,3.1351,1,4,1.7953
1,1,11,3,0,0,44, man075.jpg, ,3,1.8374,1,4,1.2959,7,0,7,7,0
1,1,12,2,2,2,1, man002.jpg, cue_2.jpg,2,1.0546,1,4,0.7858,2,2.4957,1,4,1.7033
1,1,13,2,2,2,223, man386.jpg, cue_2.jpg,2,1.6371,1,4,1.4239,2,0.6717,1,4,0.711
1,1,14,2,1,3,236, man414.jpg, cue_1.jpg,2,3.5182,1,4,1.4666,1,1.0874,1,4,0.6228
1,1,15,2,1,3,9, man022.jpg, cue_1.jpg,2,3.8501,1,3,2.6485,1,1.2158,1,4,1.1895
1,1,16,3,0,0,155, man255.jpg, ,3,0.937,1,4,1.1988,7,0,7,7,0
1,1,17,2,1,3,254, man445.JPG, cue_1.jpg,1,2.1484,3,4,1.6892,1,0.7669,1,4,0.5593
1,1,18,3,0,0,117, man180.jpg, ,3,1.0556,1,4,0.7549,7,0,7,7,0
1,1,19,2,1,3,139, man223.jpg, cue_1.jpg,1,2.5046,3,3,1.5829,1,0.703,1,4,1.2624
1,1,20,1,1,3,111, man169.jpg, cue_1.jpg,1,1.2312,1,4,0.9226,1,0.544,1,4,0.493
1,1,21,3,0,0,131, man205.jpg, ,3,2.1902,1,2,3.2498,7,0,7,7,0
1,1,22,3,0,0,110, man168.jpg, ,3,1.1175,1,4,0.5271,7,0,7,7,0
1,1,23,2,2,2,180, man304.jpg, cue_2.jpg,2,1.6146,1,4,0.8262,2,1.407,1,4,0.6492
1,1,24,3,0,0,251, man437.jpg, ,3,1.2862,1,4,0.5597,7,0,7,7,0
1,1,25,1,3,1,140, man230.jpg, cue_3.jpg,1,1.2939,1,4,1.0153,3,2.3673,1,4,0.6167
1,1,26,3,0,0,261, man460.jpg, ,3,1.1879,1,4,1.6495,7,0,7,7,0
1,1,27,1,3,1,203, man351.jpg, cue_3.jpg,1,2.7204,1,3,2.6388,2,0.9271,0,4,1.6723
1,1,28,2,2,2,123, man190.jpg, cue_2.jpg,1,1.3516,3,3,2.0623,2,1.0872,1,4,0.6172
1,1,29,2,1,3,75, man118.jpg, cue_1.jpg,1,2.2126,3,3,1.1115,1,0.575,1,4,0.6395
1,1,30,1,3,1,93, man141.jpg, cue_3.jpg,1,3.05,1,4,0.6341,1,0.5758,0,4,0.5825
1,1,31,1,2,2,19, man039.jpg, cue_2.jpg,1,2.3392,1,4,1.8723,2,0.9591,1,4,0.6168
1,1,32,1,2,2,200, man345.jpg, cue_2.jpg,1,1.7321,1,4,0.8906,2,2.271,1,4,0.6139
1,1,33,3,0,0,176, man298.jpg, ,3,1.0891,1,4,1.2028,7,0,7,7,0
1,1,34,3,0,0,88, man135.jpg, ,3,2.0857,1,4,1.1337,7,0,7,7,0
1,1,35,2,2,2,189, man322.jpg, cue_2.jpg,2,1.4113,1,4,0.8558,2,0.9269,1,4,1.2284
1,1,36,1,3,1,259, man453.jpg, cue_3.jpg,1,1.7745,1,4,1.0116,3,2.1438,1,4,0.9427
1,1,37,1,3,1,217, man375.jpg, cue_3.jpg,1,2.5087,1,3,1.203,3,2.0479,1,4,1.2259
1,1,38,3,0,0,228, man396.jpg, ,3,1.8041,1,4,1.2959,7,0,7,7,0
1,1,39,1,1,3,56, man092.jpg, cue_1.jpg,1,1.5985,1,4,1.1466,1,3.52,1,4,0.997
1,1,40,1,2,2,208, man358.jpg, cue_2.jpg,2,1.1219,2,4,1.1064,2,1.0559,1,4,0.6787
1,1,41,2,1,3,3, man005.jpg, cue_1.jpg,1,1.1804,3,3,1.2931,1,0.672,1,4,0.5857
1,1,42,1,1,3,148, man246.jpg, cue_1.jpg,2,3.5904,2,2,1.9354,2,3.4549,0,4,1.5485
1,1,43,3,0,0,114, man174.jpg, ,3,1.3766,1,4,0.6626,7,0,7,7,0
1,1,44,1,1,3,25, man047.jpg, cue_1.jpg,1,2.1759,1,4,3.1225,1,0.9917,1,4,1.0308
1,1,45,2,2,2,120, man187.jpg, cue_2.jpg,2,1.1206,1,4,0.9114,2,0.736,1,4,0.6191
1,1,46,2,2,2,206, man355.jpg, cue_2.jpg,1,2.4704,3,4,1.3902,1,0.6072,0,4,0.4895
1,1,47,2,2,2,133, man207.jpg, cue_2.jpg,1,3.0825,3,3,1.273,1,0.8318,0,3,2.5754
1,1,48,3,0,0,66, man106.jpg, ,3,1.4817,1,4,0.6022,7,0,7,7,0
1,1,49,3,0,0,86, man131.jpg, ,3,1.2523,1,4,2.8343,7,0,7,7,0
1,1,50,3,0,0,186, man314.jpg, ,3,1.7926,1,4,0.6261,7,0,7,7,0
1,1,51,1,2,2,136, man212.jpg, cue_2.jpg,1,1.7596,1,4,1.0776,2,0.832,1,4,0.4843
1,1,52,2,2,2,239, man421.jpg, cue_2.jpg,1,1.4452,3,4,1.0487,1,0.7675,0,4,0.5556
1,1,53,3,0,0,46, man077.jpg, ,3,0.9696,1,4,0.3044,7,0,7,7,0
1,1,54,2,1,3,146, man244.jpg, cue_1.jpg,1,1.161,3,4,2.0401,1,0.5759,1,4,0.5856
1,1,55,3,0,0,96, man149.jpg, ,1,4.5503,0,2,1.3033,1,0.96,0,2,0.6475
1,1,56,3,0,0,163, man271.jpg, ,3,1.1855,1,4,0.2053,7,0,7,7,0
1,1,57,1,2,2,49, man082.jpg, cue_2.jpg,1,1.3879,1,4,1.2012,2,0.9272,1,4,0.6789
1,1,58,3,0,0,78, man122.jpg, ,3,1.3113,1,4,0.2161,7,0,7,7,0
1,1,59,3,0,0,83, man128.jpg, ,3,1.0283,1,4,0.5051,7,0,7,7,0
1,1,60,1,2,2,10, man024.jpg, cue_2.jpg,1,1.7053,1,2,2.2252,2,1.6319,1,4,0.6229
1,1,61,1,3,1,107, man165.jpg, cue_3.jpg,2,5.1942,2,4,0.8479,3,1.3751,1,4,0.9294
1,1,62,3,0,0,194, man333.jpg, ,3,1.2133,1,4,0.4598,7,0,7,7,0
1,1,63,2,2,2,130, man203.jpg, cue_2.jpg,2,2.4141,1,4,0.8567,2,0.7036,1,4,0.5181
1,1,64,3,0,0,230, man403.jpg, ,3,0.9338,1,4,0.334,7,0,7,7,0
1,1,65,2,3,1,125, man193.jpg, cue_3.jpg,2,2.1491,1,4,0.858,3,0.9591,1,4,0.8762
1,1,66,2,1,3,220, man380.jpg, cue_1.jpg,2,1.4701,1,4,2,1,0.6389,1,4,0.5437
1,1,67,3,0,0,64, man102.jpg, ,3,4.2387,1,4,1.6764,7,0,7,7,0
1,1,68,2,3,1,198, man339.jpg, cue_3.jpg,2,4.6813,1,3,1.3029,3,3.2629,1,4,0.6146
1,1,69,2,3,1,153, man252.jpg, cue_3.jpg,2,3.5858,1,4,0.9222,3,5.0876,1,3,1.1987
1,1,70,1,1,3,79, man123.jpg, cue_1.jpg,1,2.3696,1,3,1.5176,1,0.6072,1,4,0.8032
1,1,71,1,2,2,41, man070.jpg, cue_2.jpg,2,6.247,2,4,0.7177,2,1.503,1,4,0.866
1,1,72,3,0,0,104, man161.jpg, ,3,1.4429,1,4,0.374,7,0,7,7,0
1,1,73,3,0,0,231, man404.jpg, ,3,1.1296,1,4,0.3638,7,0,7,7,0
1,1,74,2,1,3,94, man144.jpg, cue_1.jpg,2,1.4415,1,4,2.1327,1,4.352,1,3,1.0277
1,1,75,1,2,2,67, man107.jpg, cue_2.jpg,2,1.5503,2,4,0.8738,2,0.6709,1,4,0.4907
1,1,76,1,3,1,160, man262.jpg, cue_3.jpg,1,1.8677,1,4,0.8128,3,1.5991,1,4,0.5824
1,1,77,2,1,3,168, man278.jpg, cue_1.jpg,1,2.2753,3,4,0.8514,2,1.3435,0,4,0.5504
1,1,78,1,2,2,159, man260.jpg, cue_2.jpg,1,3.3633,1,4,0.887,2,0.5112,1,4,0.4278
1,1,79,3,0,0,156, man257.jpg, ,3,1.2788,1,4,0.4089,7,0,7,7,0
1,1,80,1,1,3,109, man167.jpg, cue_1.jpg,1,2.4775,1,4,0.7573,1,0.4797,1,4,0.576
1,1,81,1,1,3,33, man060.jpg, cue_1.jpg,1,1.3882,1,4,0.4668,1,0.4472,1,4,0.3317
1,1,82,3,0,0,257, man450.jpg, ,3,1.8268,1,4,0.3418,7,0,7,7,0
1,1,83,1,1,3,102, man158.jpg, cue_1.jpg,1,2.058,1,4,0.9184,1,0.4149,1,4,0.3337
1,1,84,2,3,1,219, man378.jpg, cue_3.jpg,2,2.597,1,4,1.1104,3,0.895,1,4,0.3544
1,1,85,2,3,1,32, man059.jpg, cue_3.jpg,1,2.537,3,4,0.6218,3,0.3833,1,4,0.3525
1,1,86,1,1,3,161, man267.jpg, cue_1.jpg,1,4.553,1,3,1.4022,1,0.6389,1,4,1.1553
1,1,87,1,3,1,207, man357.jpg, cue_3.jpg,1,8.3922,1,3,4.5042,3,3.9998,1,4,0.9626
1,1,88,3,0,0,23, man044.jpg, ,3,1.0866,1,4,0.2091,7,0,7,7,0
1,1,89,2,3,1,18, man036.jpg, cue_3.jpg,2,2.03,1,4,0.5046,3,0.6079,1,4,0.393
1,1,90,1,3,1,216, man374.jpg, cue_3.jpg,1,1.8062,1,4,0.4021,3,0.3836,1,4,0.2877
1,1,91,2,1,3,11, man025.jpg, cue_1.jpg,1,1.385,3,4,0.9423,1,0.9272,1,4,0.43
1,1,92,1,2,2,100, man156.jpg, cue_2.jpg,1,3.9703,1,4,1.5949,2,0.735,1,4,0.5531
1,1,93,2,3,1,89, man136.jpg, cue_3.jpg,1,3.4953,3,4,0.5323,3,0.7037,1,4,0.4941
1,1,94,3,0,0,255, man446.jpg, ,3,1.088,1,4,0.242,7,0,7,7,0
1,1,95,2,1,3,166, man276.jpg, cue_1.jpg,1,1.0694,3,4,0.528,1,0.544,1,4,0.2897
1,1,96,1,1,3,17, man035.jpg, cue_1.jpg,1,1.0635,1,4,0.4938,1,0.4801,1,4,0.3557
1,1,97,3,0,0,30, man056.jpg, ,3,2.4103,1,4,0.2767,7,0,7,7,0
1,1,98,2,2,2,128, man198.jpg, cue_2.jpg,1,1.6924,3,4,0.9828,1,0.7032,0,4,0.5749
1,1,99,2,3,1,55, man091.jpg, cue_3.jpg,2,4.2363,1,4,0.5057,3,2.5589,1,4,0.425
1,1,100,3,0,0,184, man312.jpg, ,3,1.0686,1,4,0.3028,7,0,7,7,0
1,1,101,2,2,2,270, man471.jpg, cue_2.jpg,2,1.3199,1,4,0.6561,2,0.479,1,4,0.3831
1,1,102,1,2,2,31, man058.jpg, cue_2.jpg,2,1.2842,2,3,3.916,2,0.6389,1,4,0.3019
1,1,103,2,1,3,112, man171.jpg, cue_1.jpg,2,6.6945,1,3,1.3253,1,1.439,1,4,0.4564
1,1,104,1,1,3,171, man282.jpg, cue_1.jpg,1,5.8027,1,4,2.0712,1,2.2397,1,4,0.4493
1,1,105,3,0,0,91, man138.jpg, ,3,1.217,1,4,0.24,7,0,7,7,0
1,1,106,1,1,3,263, man462.jpg, cue_1.jpg,1,5.2913,1,3,1.2599,1,0.64,1,4,0.5244
1,1,107,3,0,0,7, man017.jpg, ,3,2.0918,1,4,0.18,7,0,7,7,0
1,1,108,3,0,0,196, man337.jpg, ,3,3.1354,1,3,0.4291,7,0,7,7,0
1,1,109,1,1,3,142, man234.jpg, cue_1.jpg,2,3.5521,2,3,1.5943,1,1.3109,1,3,1.2161
1,1,110,3,0,0,172, man283.jpg, ,3,1.1541,1,4,0.1761,7,0,7,7,0
1,1,111,2,2,2,264, man463.jpg, cue_2.jpg,1,1.4387,3,4,0.8818,2,0.6071,1,4,0.4502
1,1,112,3,0,0,51, man085.jpg, ,3,1.1245,1,4,0.2753,7,0,7,7,0
1,1,113,1,2,2,211, man361.jpg, cue_2.jpg,2,1.2951,2,4,0.8885,2,0.4468,1,4,0.2872
1,1,114,1,3,1,209, man359.jpg, cue_3.jpg,1,5.4165,1,3,0.373,3,1.2149,1,4,0.4812
1,1,115,3,0,0,29, man055.jpg, ,3,1.0234,1,4,0.2143,7,0,7,7,0
1,1,116,1,3,1,27, man050.jpg, cue_3.jpg,1,1.3469,1,3,2.1385,3,1.1198,1,4,0.3522
1,1,117,3,0,0,262, man461.jpg, ,3,0.967,1,4,0.2377,7,0,7,7,0
1,1,118,2,2,2,169, man279.jpg, cue_2.jpg,2,1.3852,1,4,0.6225,2,0.7351,1,4,0.4844
1,1,119,1,3,1,174, man289.jpg, cue_3.jpg,2,3.3623,2,4,0.5999,3,0.6389,1,4,0.2589
1,1,120,1,1,3,37, man064.jpg, cue_1.jpg,1,3.0855,1,4,0.5068,1,0.7358,1,4,0.423
1,1,121,2,1,3,138, man222.jpg, cue_1.jpg,2,4.7787,1,4,0.4341,1,0.6075,1,4,0.2613
1,1,122,3,0,0,237, man416.jpg, ,3,0.9271,1,4,0.184,7,0,7,7,0
1,1,123,2,1,3,224, man387.jpg, cue_1.jpg,1,1.5735,3,4,2.1313,1,0.8632,1,4,0.9965
1,1,124,2,3,1,63, man101.jpg, cue_3.jpg,1,2.6557,3,4,0.3999,3,1.951,1,4,0.6204
1,1,125,3,0,0,249, man434.jpg, ,3,1.0318,1,4,0.1545,7,0,7,7,0
1,1,126,3,0,0,119, man186.jpg, ,3,0.9394,1,4,0.1799,7,0,7,7,0
1,1,127,3,0,0,266, man465.jpg, ,3,1.8252,1,4,0.1801,7,0,7,7,0
1,1,128,3,0,0,116, man179.jpg, ,3,0.8656,1,4,0.1378,7,0,7,7,0
1,1,129,1,3,1,80, man124.jpg, cue_3.jpg,1,1.5803,1,4,1.6899,3,1.183,1,4,0.256
1,1,130,3,0,0,173, man287.jpg, ,3,1.0349,1,4,0.142,7,0,7,7,0
1,1,131,2,2,2,42, man071.jpg, cue_2.jpg,2,1.1178,1,4,0.6863,2,0.511,1,4,0.2992
1,1,132,3,0,0,182, man310.jpg, ,3,0.9318,1,4,0.1561,7,0,7,7,0
1,1,133,3,0,0,154, man253.jpg, ,3,0.7465,1,4,0.1228,7,0,7,7,0
1,1,134,1,3,1,245, man429.jpg, cue_3.jpg,1,2.9245,1,4,1.4894,3,2.6549,1,4,0.3225
1,1,135,1,2,2,190, man326.jpg, cue_2.jpg,1,3.0503,1,3,0.4739,2,0.7035,1,4,0.2954
1,1,136,1,3,1,137, man221.jpg, cue_3.jpg,2,1.6646,2,4,0.7626,3,0.3838,1,4,0.2337
1,1,137,2,1,3,85, man130.jpg, cue_1.jpg,2,2.2131,1,4,0.5041,1,1.4719,1,4,0.3242
1,1,138,3,0,0,242, man424.jpg, ,3,0.908,1,4,0.1175,7,0,7,7,0
1,1,139,2,3,1,45, man076.jpg, cue_3.jpg,2,1.606,1,4,0.5302,3,0.4795,1,4,0.3268
1,1,140,3,0,0,227, man392.jpg, ,3,1.9667,1,4,0.1867,7,0,7,7,0
1,1,141,2,3,1,229, man401.jpg, cue_3.jpg,2,1.5291,1,4,1.8807,3,0.6392,1,3,0.4624
1,1,142,1,2,2,238, man417.jpg, cue_2.jpg,1,1.376,1,4,0.2779,2,0.4475,1,4,0.1642
1,1,143,1,1,3,144, man240.jpg, cue_1.jpg,2,3.9727,2,3,0.9415,1,0.511,1,4,0.2872
1,1,144,2,3,1,265, man464.jpg, cue_3.jpg,2,1.9286,1,4,0.4074,3,0.7668,1,4,0.1971
1,1,145,2,3,1,90, man137.jpg, cue_3.jpg,2,1.1539,1,4,0.4009,3,0.7038,1,4,0.1917
1,1,146,3,0,0,68, man109.jpg, ,3,1.4549,1,4,0.1135,7,0,7,7,0
1,1,147,2,1,3,141, man233.jpg, cue_1.jpg,2,1.4417,1,4,0.5329,1,0.3187,1,4,0.1278
1,1,148,1,1,3,132, man206.jpg, cue_1.jpg,1,1.214,1,4,0.5238,1,0.5439,1,4,0.1423
1,1,149,3,0,0,158, man259.jpg, ,3,1.6778,1,4,0.1192,7,0,7,7,0
1,1,150,2,1,3,126, man196.jpg, cue_1.jpg,1,1.9276,3,4,0.4384,1,0.4476,1,4,0.128
1,1,151,3,0,0,118, man184.jpg, ,3,0.9596,1,4,0.119,7,0,7,7,0
1,1,152,3,0,0,214, man370.jpg, ,3,1.1274,1,4,0.117,7,0,7,7,0
1,1,153,1,2,2,191, man328.jpg, cue_2.jpg,1,1.1282,1,4,0.9526,2,0.3838,1,4,0.1593
1,1,154,2,3,1,221, man382.jpg, cue_3.jpg,2,1.1176,1,4,0.3981,3,1.3754,1,4,0.0967
1,1,155,1,2,2,244, man428.jpg, cue_2.jpg,2,1.6035,2,4,0.3997,2,0.9599,1,4,0.1346
1,1,156,3,0,0,54, man089.jpg, ,3,0.8692,1,4,0.1445,7,0,7,7,0
1,1,157,1,1,3,145, man242.jpg, cue_1.jpg,1,3.5179,1,3,0.634,1,0.5435,1,4,0.1372
1,1,158,2,2,2,21, man041.jpg, cue_2.jpg,1,1.1928,3,4,0.3729,2,0.5751,1,4,0.1419
1,1,159,3,0,0,170, man281.jpg, ,3,1.1655,1,4,0.1548,7,0,7,7,0
1,1,160,1,1,3,205, man354.jpg, cue_1.jpg,1,1.9315,1,3,0.8576,1,0.5758,1,4,0.3975
1,1,161,1,2,2,250, man436.jpg, cue_2.jpg,1,2.6579,1,3,0.3381,2,0.7358,1,4,0.1957
1,1,162,3,0,0,5, man010.jpg, ,3,0.927,1,4,0.1216,7,0,7,7,0
1,1,163,2,3,1,268, man467.jpg, cue_3.jpg,2,2.0259,1,4,0.5965,3,1.536,1,4,0.1701
1,1,164,2,3,1,150, man248.jpg, cue_3.jpg,2,1.8325,1,4,0.3467,3,0.6718,1,4,0.0955
1,1,165,1,1,3,225, man389.jpg, cue_1.jpg,1,3.9045,1,3,0.3778,3,2.0154,0,4,1.4475
1,1,166,1,2,2,134, man208.jpg, cue_2.jpg,1,4.2878,1,3,1.0505,2,0.9592,1,4,0.3265
1,1,167,3,0,0,48, man079.jpg, ,3,1.0705,1,4,0.1121,7,0,7,7,0
1,1,168,2,2,2,2, man004.jpg, cue_2.jpg,2,0.9294,1,4,0.6983,2,0.4472,1,4,0.2653
1,1,169,1,3,1,218, man377.jpg, cue_3.jpg,1,4.0033,1,2,0.9863,3,2.879,1,3,1.3203
1,1,170,2,2,2,202, man350.jpg, cue_2.jpg,2,0.8059,1,4,0.4041,2,0.4156,1,4,0.3204
1,1,171,3,0,0,13, man029.jpg, ,3,1.3522,1,4,0.1109,7,0,7,7,0
1,1,172,2,3,1,226, man390.jpg, cue_3.jpg,2,1.7913,1,4,0.2758,3,0.3519,1,4,0.2646
1,1,173,3,0,0,122, man189.jpg, ,3,0.8986,1,4,0.1552,7,0,7,7,0
1,1,174,1,1,3,98, man154.jpg, cue_1.jpg,1,2.3158,1,4,1.0825,1,1.215,1,4,0.2013
1,1,175,1,1,3,61, man099.jpg, cue_1.jpg,1,3.9742,1,4,1.0058,1,0.64,1,4,0.1048
1,1,176,2,1,3,97, man153.jpg, cue_1.jpg,1,1.1618,3,4,0.409,1,0.3189,1,4,0.1056
1,1,177,1,1,3,267, man466.jpg, cue_1.jpg,2,3.2745,2,3,0.5289,1,1.3429,1,3,1.281
1,1,178,3,0,0,243, man427.jpg, ,1,2.1763,0,3,1.5567,1,0.4478,0,3,0.1273
1,1,179,3,0,0,35, man062.jpg, ,3,1.8549,1,4,0.0781,7,0,7,7,0
1,1,180,2,2,2,252, man439.jpg, cue_2.jpg,2,1.1544,1,4,0.9135,2,0.3509,1,4,0.1396
1,1,181,1,1,3,152, man250.jpg, cue_1.jpg,1,2.8272,1,4,0.3385,1,0.4149,1,4,0.1306
1,1,182,3,0,0,52, man086.jpg, ,3,0.931,1,4,0.1221,7,0,7,7,0
1,1,183,3,0,0,82, man126.jpg, ,3,0.8764,1,4,0.1192,7,0,7,7,0
1,1,184,1,3,1,167, man277.jpg, cue_3.jpg,2,1.5436,2,4,0.3098,3,1.056,1,4,0.1086
1,1,185,2,3,1,177, man299.jpg, cue_3.jpg,2,2.3815,1,4,0.9535,3,0.9591,1,3,0.9668
1,1,186,1,1,3,4, man007.jpg, cue_1.jpg,1,2.725,1,4,0.4343,1,0.7677,1,4,0.1112
1,1,187,1,3,1,15, man032.jpg, cue_3.jpg,1,2.8128,1,4,0.7292,3,0.5438,1,4,0.1635
1,1,188,1,3,1,175, man291.jpg, cue_3.jpg,1,1.6329,1,4,0.8092,3,0.7358,1,4,0.1059
1,1,189,2,3,1,213, man366.jpg, cue_3.jpg,2,2.283,1,3,0.6661,3,1.7916,1,3,0.2893
1,1,190,3,0,0,12, man027.jpg, ,3,1.4202,1,4,0.0801,7,0,7,7,0
1,1,191,2,2,2,178, man301.jpg, cue_2.jpg,2,1.1218,1,4,0.4343,2,0.447,1,4,0.1409
1,1,192,1,3,1,222, man383.jpg, cue_3.jpg,1,1.1624,1,4,0.4433,3,0.6069,1,4,0.1104
1,1,193,3,0,0,149, man247.jpg, ,3,0.9587,1,4,0.0861,7,0,7,7,0
1,1,194,2,2,2,28, man052.jpg, cue_2.jpg,1,1.128,3,4,0.3443,2,0.2558,1,4,0.1088
1,1,195,2,1,3,195, man336.jpg, cue_1.jpg,1,1.8229,3,2,1.33,1,1.3758,1,4,0.1271
1,1,196,3,0,0,215, man372.jpg, ,3,1.0523,1,4,0.0822,7,0,7,7,0
1,1,197,3,0,0,269, man468.jpg, ,3,0.8358,1,4,0.0802,7,0,7,7,0
1,1,198,1,2,2,188, man316.jpg, cue_2.jpg,2,9.0579,2,2,0.7259,2,1.4068,1,4,0.1397
1,1,199,1,2,2,197, man338.jpg, cue_2.jpg,1,2.2193,1,4,2.0297,2,0.5108,1,4,0.1913
1,1,200,2,2,2,103, man160.jpg, cue_2.jpg,2,1.1354,1,4,0.3032,2,0.5428,1,4,0.2027
1,1,201,2,3,1,39, man067.jpg, cue_3.jpg,2,1.5115,1,4,0.3759,3,0.3513,1,4,0.1045
1,1,202,2,2,2,247, man431.jpg, cue_2.jpg,2,1.3513,1,4,0.4002,2,0.3829,1,4,0.1106
1,1,203,1,3,1,162, man268.jpg, cue_3.jpg,2,1.0869,2,4,0.6247,3,0.5752,1,4,0.1097
1,1,204,3,0,0,57, man093.jpg, ,3,1.1987,1,4,0.1398,7,0,7,7,0
1,1,205,1,2,2,193, man332.jpg, cue_2.jpg,1,1.9314,1,4,0.4424,2,0.4478,1,4,0.1318
1,1,206,1,2,2,165, man275.jpg, cue_2.jpg,2,1.9554,2,4,0.4331,2,0.5755,1,4,0.1347
1,1,207,2,1,3,199, man341.jpg, cue_1.jpg,1,1.6371,3,3,0.5278,1,1.0558,1,4,0.3646
1,1,208,2,2,2,121, man188.jpg, cue_2.jpg,2,0.8986,1,4,0.3323,3,0.5431,0,2,2.1823
1,1,209,3,0,0,179, man303.jpg, ,3,2.0479,1,4,0.1225,7,0,7,7,0
1,1,210,2,3,1,69, man110.jpg, cue_3.jpg,2,2.0903,1,4,0.4981,3,1.279,1,4,0.1024
1,1,211,2,2,2,181, man309.jpg, cue_2.jpg,3,1.1568,0,4,0.0866,7,0,7,7,0
1,1,212,1,3,1,20, man040.jpg, cue_3.jpg,2,3.1123,2,3,0.8216,3,0.9918,1,4,0.8702
1,1,213,2,1,3,16, man034.jpg, cue_1.jpg,1,3.2734,3,3,0.9436,1,1.1834,1,4,0.2901
1,1,214,1,1,3,233, man410.jpg, cue_1.jpg,1,1.5339,1,4,0.237,1,0.4157,1,4,0.2882
1,1,215,1,2,2,59, man095.jpg, cue_2.jpg,2,1.0016,2,4,0.2709,2,0.3835,1,4,0.2581
1,1,216,1,2,2,40, man068.jpg, cue_2.jpg,2,4.973,2,4,2.2671,3,0.511,0,4,0.135
1,1,217,3,0,0,53, man088.jpg, ,3,1.5745,1,4,0.181,7,0,7,7,0
1,1,218,2,3,1,135, man209.jpg, cue_3.jpg,2,1.7936,1,3,1.9397,3,0.9268,1,4,0.1419
1,1,219,1,1,3,241, man423.jpg, cue_1.jpg,1,1.6447,1,4,0.8234,1,0.4469,1,4,0.1763
1,1,220,2,2,2,187, man315.jpg, cue_2.jpg,2,1.3432,1,4,1.0145,2,0.3832,1,4,0.1071
1,1,221,1,3,1,234, man412.jpg, cue_3.jpg,2,1.7081,2,4,0.2759,3,0.7358,1,4,0.1034
1,1,222,3,0,0,143, man237.jpg, ,3,0.8417,1,4,0.118,7,0,7,7,0
1,1,223,3,0,0,60, man096.jpg, ,3,1.1903,1,4,0.084,7,0,7,7,0
1,1,224,1,3,1,204, man352.jpg, cue_3.jpg,1,3.6539,1,4,0.6199,3,1.0878,1,4,0.1316
1,1,225,3,0,0,127, man197.jpg, ,3,0.8667,1,4,0.1097,7,0,7,7,0
1,1,226,1,3,1,58, man094.jpg, cue_3.jpg,1,1.5187,1,4,0.3984,3,0.575,1,4,0.1006
1,1,227,2,3,1,246, man430.jpg, cue_3.jpg,1,1.0614,3,4,0.3126,3,0.383,1,4,0.0745
1,1,228,3,0,0,164, man273.jpg, ,3,0.813,1,4,0.122,7,0,7,7,0
1,1,229,3,0,0,212, man365.jpg, ,3,0.9072,1,4,0.15,7,0,7,7,0
1,1,230,1,3,1,124, man191.jpg, cue_3.jpg,2,2.7878,2,3,0.4301,3,0.7038,1,4,0.0764
1,1,231,3,0,0,92, man139.jpg, ,3,0.8956,1,4,0.0899,7,0,7,7,0
1,1,232,3,0,0,22, man042.jpg, ,3,1.2277,1,4,0.0559,7,0,7,7,0
1,1,233,2,3,1,235, man413.jpg, cue_3.jpg,2,1.579,1,4,0.6307,3,0.3511,1,4,0.078
1,1,234,3,0,0,50, man084.jpg, ,3,0.8326,1,4,0.0768,7,0,7,7,0
1,1,235,3,0,0,8, man019.jpg, ,3,0.6705,1,4,0.0818,7,0,7,7,0
1,1,236,2,1,3,157, man258.jpg, cue_1.jpg,2,1.5717,1,2,1.9358,1,1.1838,1,4,0.1097
1,1,237,2,1,3,70, man111.jpg, cue_1.jpg,1,3.1827,3,4,0.5051,1,0.7031,1,4,0.1013
1,1,238,1,1,3,147, man245.jpg, cue_1.jpg,1,1.4783,1,4,0.728,1,0.4159,1,4,0.0711
1,1,239,2,1,3,101, man157.jpg, cue_1.jpg,2,2.3749,1,3,0.6934,1,1.1517,1,4,0.8072
1,1,240,3,0,0,74, man117.jpg, ,3,2.6987,1,4,0.1547,7,0,7,7,0
1,1,241,2,1,3,77, man121.jpg, cue_1.jpg,2,3.5604,1,3,0.6587,1,0.9271,1,4,0.1423
1,1,242,3,0,0,256, man447.jpg, ,3,7.3584,1,4,0.0898,7,0,7,7,0
1,1,243,2,1,3,232, man407.jpg, cue_1.jpg,2,1.4197,1,3,1.0395,1,0.4789,1,4,0.144
1,1,244,3,0,0,106, man163.jpg, ,3,0.83,1,4,0.0579,7,0,7,7,0
1,1,245,3,0,0,185, man313.jpg, ,3,0.8142,1,4,0.0901,7,0,7,7,0
1,1,246,1,1,3,84, man129.jpg, cue_1.jpg,1,2.4137,1,4,0.5683,1,0.5109,1,4,0.0722
1,1,247,1,3,1,6, man016.jpg, cue_3.jpg,1,2.7005,1,4,0.8262,1,0.3837,0,1,2.0554
1,1,248,1,2,2,34, man061.jpg, cue_2.jpg,1,3.6546,1,4,0.3968,2,0.4157,1,4,0.2017
1,1,249,2,2,2,47, man078.jpg, cue_2.jpg,2,1.1878,1,4,0.3399,2,0.319,1,4,0.0716
1,1,250,2,3,1,99, man155.jpg, cue_3.jpg,2,5.034,1,3,0.6293,3,2.0158,1,4,0.0708
1,1,251,3,0,0,26, man048.jpg, ,3,0.9372,1,4,0.0493,7,0,7,7,0
1,1,252,2,3,1,108, man166.jpg, cue_3.jpg,1,4.0044,3,2,0.7309,3,1.0878,1,4,0.0948
1,1,253,3,0,0,113, man172.jpg, ,3,1.1199,1,4,0.0779,7,0,7,7,0
1,1,254,1,1,3,76, man120.jpg, cue_1.jpg,1,1.5701,1,4,0.6878,1,0.4147,1,4,0.0642
1,1,255,3,0,0,81, man125.jpg, ,3,0.8985,1,4,0.108,7,0,7,7,0
1,1,256,2,3,1,248, man433.jpg, cue_3.jpg,1,1.4211,3,4,0.5611,3,0.7032,1,4,0.0753
1,1,257,2,1,3,258, man451.jpg, cue_1.jpg,1,1.7735,3,2,1.1387,1,2.335,1,3,1.1198
1,1,258,2,1,3,210, man360.jpg, cue_1.jpg,2,1.3181,1,4,0.5581,1,0.3829,1,4,0.0696
1,1,259,2,2,2,183, man311.jpg, cue_2.jpg,2,1.0934,1,4,0.5379,2,0.384,1,4,0.0987
1,1,260,2,3,1,115, man177.jpg, cue_3.jpg,2,1.4112,1,4,0.5036,3,0.3195,1,4,0.068
1,1,261,2,1,3,14, man031.jpg, cue_1.jpg,2,1.2864,1,4,0.4314,1,0.3508,1,4,0.0782
1,1,262,1,1,3,73, man115.jpg, cue_1.jpg,2,1.2481,2,4,0.3781,1,0.448,1,4,0.1038
1,1,263,1,3,1,43, man072.jpg, cue_3.jpg,2,1.2249,2,4,0.3385,3,0.4478,1,4,0.0985
1,1,264,2,3,1,151, man249.jpg, cue_3.jpg,2,1.348,1,4,0.7949,3,0.5117,1,4,0.0994
1,1,265,3,0,0,192, man330.jpg, ,3,1.4764,1,4,0.0841,7,0,7,7,0
1,1,266,3,0,0,105, man162.jpg, ,3,0.7759,1,4,0.119,7,0,7,7,0
1,1,267,1,2,2,62, man100.jpg, cue_2.jpg,2,1.2873,2,4,0.3688,2,0.2873,1,4,0.1008
1,1,268,3,0,0,260, man459.jpg, ,3,0.9012,1,4,0.1081,7,0,7,7,0
1,1,269,3,0,0,36, man063.jpg, ,3,1.0551,1,4,0.1144,7,0,7,7,0
1,1,270,2,2,2,24, man045.jpg, cue_2.jpg,1,1.8268,3,4,1.1418,2,0.5439,1,4,0.109
2,2,1,3,0,0,80, man124.jpg, ,3,1.4166,1,4,2.2206,7,0,7,7,0
2,2,2,1,3,1,50, man084.jpg, cue_3.jpg,1,1.9567,1,2,3.4421,3,2.1116,1,3,2.0571
2,2,3,3,0,0,220, man380.jpg, ,3,1.271,1,4,1.8411,7,0,7,7,0
2,2,4,1,2,2,136, man212.jpg, cue_2.jpg,1,1.9612,1,3,1.3987,2,1.3105,1,4,2.3056
2,2,5,3,0,0,40, man068.jpg, ,3,2.0566,1,4,1.266,7,0,7,7,0
2,2,6,3,0,0,73, man115.jpg, ,3,1.1523,1,4,0.9131,7,0,7,7,0
2,2,7,3,0,0,151, man249.jpg, ,3,1.0878,1,4,0.6897,7,0,7,7,0
2,2,8,3,0,0,232, man407.jpg, ,3,1.0342,1,4,0.3953,7,0,7,7,0
2,2,9,1,3,1,45, man076.jpg, cue_3.jpg,1,3.5224,1,3,1.4224,3,3.3266,1,3,1.3501
2,2,10,3,0,0,30, man056.jpg, ,3,3.0107,1,3,1.5239,7,0,7,7,0
2,2,11,3,0,0,84, man129.jpg, ,3,0.8416,1,4,0.8539,7,0,7,7,0
2,2,12,2,1,3,153, man252.jpg, cue_1.jpg,1,1.5116,3,3,1.7508,1,0.5104,1,4,1.0642
2,2,13,2,2,2,17, man035.jpg, cue_2.jpg,2,1.9844,1,3,1.8017,2,1.5022,1,4,1.5686
2,2,14,3,0,0,178, man301.jpg, ,3,1.22,1,4,1.3255,7,0,7,7,0
2,2,15,1,1,3,87, man133.jpg, cue_1.jpg,1,3.1016,1,2,2.4254,1,1.4706,1,3,1.799
2,2,16,3,0,0,254, man445.JPG, ,3,1.1359,1,4,1.9357,7,0,7,7,0
2,2,17,1,3,1,200, man345.jpg, cue_3.jpg,1,3.8437,1,2,0.9462,3,2.0468,1,3,1.1875
2,2,18,2,1,3,162, man268.jpg, cue_1.jpg,2,2.951,1,2,1.1138,1,2.5917,1,3,1.2951
2,2,19,2,2,2,194, man333.jpg, cue_2.jpg,2,2.9098,1,2,2.2595,2,3.0068,1,2,2.7574
2,2,20,2,2,2,262, man461.jpg, cue_2.jpg,2,1.6713,1,3,1.0406,2,1.5343,1,3,1.0258
2,2,21,3,0,0,269, man468.jpg, ,3,1.518,1,4,0.3977,7,0,7,7,0
2,2,22,2,1,3,125, man193.jpg, cue_1.jpg,2,3.2341,1,3,3.0337,1,0.8311,1,3,1.1914
2,2,23,2,3,1,36, man063.jpg, cue_3.jpg,2,1.5454,1,4,1.4979,3,1.6321,1,4,0.8056
2,2,24,1,3,1,55, man091.jpg, cue_3.jpg,2,3.1452,2,3,1.909,3,1.9516,1,3,1.1538
2,2,25,1,3,1,70, man111.jpg, cue_3.jpg,1,3.623,1,2,2.5743,3,1.0872,1,3,0.9637
2,2,26,2,1,3,27, man050.jpg, cue_1.jpg,2,1.4403,1,3,1.2036,1,1.6949,1,4,1.2571
2,2,27,3,0,0,118, man184.jpg, ,3,1.0338,1,4,0.5259,7,0,7,7,0
2,2,28,1,1,3,150, man248.jpg, cue_1.jpg,1,1.7413,1,4,0.4987,1,1.2154,1,4,1.5151
2,2,29,3,0,0,172, man283.jpg, ,3,1.4408,1,4,0.3718,7,0,7,7,0
2,2,30,2,3,1,233, man410.jpg, cue_3.jpg,2,2.1525,1,3,1.1988,3,0.832,1,4,0.9688
2,2,31,3,0,0,66, man106.jpg, ,3,1.6692,1,4,0.5267,7,0,7,7,0
2,2,32,1,2,2,78, man122.jpg, cue_2.jpg,1,3.7096,1,3,2.5775,2,1.5354,1,3,0.548
2,2,33,2,1,3,246, man430.jpg, cue_1.jpg,2,1.4102,1,3,5.2706,1,0.9589,1,4,2.3041
2,2,34,2,3,1,152, man250.jpg, cue_3.jpg,2,1.8928,1,4,1.8131,3,2.207,1,4,0.4907
2,2,35,2,1,3,116, man179.jpg, cue_1.jpg,2,1.564,1,4,2.2663,1,0.6068,1,4,0.4485
2,2,36,1,2,2,69, man110.jpg, cue_2.jpg,2,2.0828,2,3,1.1779,2,0.9918,1,4,0.6711
2,2,37,1,2,2,1, man002.jpg, cue_2.jpg,2,1.2856,2,3,0.7538,2,1.151,1,4,0.8966
2,2,38,3,0,0,99, man155.jpg, ,3,1.0241,1,4,0.5326,7,0,7,7,0
2,2,39,3,0,0,247, man431.jpg, ,3,0.9619,1,4,0.4424,7,0,7,7,0
2,2,40,1,3,1,266, man465.jpg, cue_3.jpg,1,2.7021,1,3,0.6841,3,1.407,1,4,0.4815
2,2,41,1,1,3,166, man276.jpg, cue_1.jpg,1,1.5081,1,3,1.1405,1,0.7034,1,4,2.1181
2,2,42,2,2,2,53, man088.jpg, cue_2.jpg,2,1.2505,1,3,0.6853,2,1.2475,1,4,2.0915
2,2,43,2,1,3,133, man207.jpg, cue_1.jpg,2,2.0238,1,3,1.2359,1,0.7029,1,4,0.5773
2,2,44,2,2,2,160, man262.jpg, cue_2.jpg,2,0.9747,1,3,0.6907,2,0.9589,1,3,1.3428
2,2,45,1,2,2,12, man027.jpg, cue_2.jpg,1,1.324,1,4,1.012,2,1.8238,1,4,1.5801
2,2,46,3,0,0,101, man157.jpg, ,3,4.8952,1,2,1.5535,7,0,7,7,0
2,2,47,3,0,0,135, man209.jpg, ,3,2.6296,1,2,1.5271,7,0,7,7,0
2,2,48,1,2,2,3, man005.jpg, cue_2.jpg,2,3.676,2,2,1.1374,2,0.6716,1,2,1.0906
2,2,49,3,0,0,48, man079.jpg, ,3,1.4841,1,4,0.3014,7,0,7,7,0
2,2,50,1,2,2,132, man206.jpg, cue_2.jpg,2,3.5579,2,2,0.7203,2,0.7675,1,3,0.8965
2,2,51,2,1,3,138, man222.jpg, cue_1.jpg,1,3.456,3,2,1.0385,1,0.6718,1,4,1.8297
2,2,52,1,1,3,76, man120.jpg, cue_1.jpg,1,1.5826,1,3,1.2423,1,1.0869,1,4,1.7376
2,2,53,1,1,3,243, man427.jpg, cue_1.jpg,2,1.1899,2,3,1.4595,1,0.7676,1,3,0.9011
2,2,54,2,2,2,245, man429.jpg, cue_2.jpg,2,1.2206,1,4,1.8089,2,0.7032,1,4,0.4847
2,2,55,2,3,1,126, man196.jpg, cue_3.jpg,2,2.4074,1,3,1.2659,3,2.0156,1,3,0.8058
2,2,56,1,3,1,213, man366.jpg, cue_3.jpg,2,2.219,2,3,0.6854,3,2.6233,1,3,1.0242
2,2,57,1,2,2,267, man466.jpg, cue_2.jpg,1,3.8671,1,2,1.0808,2,0.8949,1,3,0.6448
2,2,58,2,2,2,239, man421.jpg, cue_2.jpg,2,1.4068,1,3,0.7233,2,1.9832,1,4,0.879
2,2,59,1,1,3,21, man041.jpg, cue_1.jpg,1,3.6174,1,3,2.1376,1,0.5752,1,3,0.9669
2,2,60,1,3,1,156, man257.jpg, cue_3.jpg,2,3.4275,2,2,1.0115,2,0.9591,0,3,1.1835
2,2,61,2,3,1,137, man221.jpg, cue_3.jpg,2,1.187,1,4,0.7846,3,0.8956,1,4,0.5213
2,2,62,3,0,0,100, man156.jpg, ,3,7.4327,1,2,3.3129,7,0,7,7,0
2,2,63,1,3,1,142, man234.jpg, cue_3.jpg,1,2.3154,1,3,1.6581,3,1.5351,1,4,0.5152
2,2,64,2,3,1,171, man282.jpg, cue_3.jpg,2,2.1146,1,4,0.8578,3,0.5751,1,4,0.4289
2,2,65,1,1,3,268, man467.jpg, cue_1.jpg,1,2.336,1,3,2.0933,1,0.8959,1,4,0.4146
2,2,66,2,2,2,15, man032.jpg, cue_2.jpg,2,2.3385,1,4,0.5277,2,0.7995,1,4,0.263
2,2,67,3,0,0,47, man078.jpg, ,3,1.6011,1,4,0.3655,7,0,7,7,0
2,2,68,1,1,3,34, man061.jpg, cue_1.jpg,2,3.1712,2,2,1.3547,1,0.7989,1,3,0.6099
2,2,69,3,0,0,44, man075.jpg, ,3,1.0699,1,4,0.3044,7,0,7,7,0
2,2,70,2,2,2,207, man357.jpg, cue_2.jpg,2,1.2251,1,3,1.0104,2,0.7031,1,4,0.2686
2,2,71,2,2,2,122, man189.jpg, cue_2.jpg,2,1.2547,1,4,1.0416,2,1.5668,1,4,0.4807
2,2,72,2,2,2,209, man359.jpg, cue_2.jpg,2,1.9239,1,3,1.1388,2,0.5432,1,3,0.5554
2,2,73,2,3,1,180, man304.jpg, cue_3.jpg,2,1.5456,1,4,1.0484,3,0.5112,1,4,0.422
2,2,74,1,2,2,104, man161.jpg, cue_2.jpg,2,2.8257,2,2,1.0107,2,1.9512,1,3,0.5496
2,2,75,1,1,3,221, man382.jpg, cue_1.jpg,2,2.4997,2,2,3.0027,2,1.7272,0,2,2.4993
2,2,76,2,3,1,81, man125.jpg, cue_3.jpg,2,1.3428,1,4,0.6629,3,1.7909,1,3,0.9114
2,2,77,3,0,0,212, man365.jpg, ,1,1.8221,0,3,1.0412,1,0.7032,0,3,1.191
2,2,78,2,2,2,28, man052.jpg, cue_2.jpg,1,1.8345,3,3,3.498,2,0.352,1,3,0.2665
2,2,79,1,2,2,190, man326.jpg, cue_2.jpg,1,1.9246,1,4,1.3314,2,1.6637,1,4,0.5808
2,2,80,1,2,2,159, man260.jpg, cue_2.jpg,1,1.2815,1,4,0.7302,2,0.4799,1,4,0.3283
2,2,81,2,1,3,175, man291.jpg, cue_1.jpg,1,2.5592,3,3,0.8515,1,0.5112,1,3,0.3933
2,2,82,3,0,0,75, man118.jpg, ,3,1.4866,1,4,0.3348,7,0,7,7,0
2,2,83,2,1,3,235, man413.jpg, cue_1.jpg,2,1.1908,1,3,0.7245,1,1.5989,1,4,0.8018
2,2,84,2,3,1,110, man168.jpg, cue_3.jpg,2,1.1878,1,3,1.0112,3,1.0234,1,3,0.7491
2,2,85,3,0,0,234, man412.jpg, ,3,1.2828,1,4,0.4281,7,0,7,7,0
2,2,86,2,2,2,252, man439.jpg, cue_2.jpg,2,1.1833,1,4,0.9411,2,0.4469,1,4,0.2574
2,2,87,2,1,3,108, man166.jpg, cue_1.jpg,2,3.3403,1,3,0.8786,1,0.6389,1,3,0.2392
2,2,88,1,3,1,121, man188.jpg, cue_3.jpg,1,2.8267,1,3,2.8356,3,0.5108,1,3,1.0624
2,2,89,3,0,0,123, man190.jpg, ,3,2.8149,1,2,1.4328,7,0,7,7,0
2,2,90,1,2,2,265, man464.jpg, cue_2.jpg,1,1.5697,1,4,0.6552,2,0.511,1,4,0.2376
2,2,91,2,2,2,33, man060.jpg, cue_2.jpg,1,3.1107,3,2,0.6301,2,0.6718,1,4,0.303
2,2,92,3,0,0,143, man237.jpg, ,3,0.9995,1,4,0.2688,7,0,7,7,0
2,2,93,3,0,0,91, man138.jpg, ,3,1.2869,1,4,0.2405,7,0,7,7,0
2,2,94,3,0,0,29, man055.jpg, ,3,0.7479,1,4,0.8269,7,0,7,7,0
2,2,95,3,0,0,24, man045.jpg, ,3,0.8307,1,4,0.3144,7,0,7,7,0
2,2,96,2,2,2,257, man450.jpg, cue_2.jpg,2,2.3397,1,3,0.9451,2,0.5433,1,4,1.0254
2,2,97,2,2,2,111, man169.jpg, cue_2.jpg,2,0.9692,1,4,0.786,2,0.4789,1,4,0.2688
2,2,98,1,3,1,90, man137.jpg, cue_3.jpg,1,2.2148,1,4,1.3698,3,1.4713,1,4,0.3216
2,2,99,3,0,0,31, man058.jpg, ,3,1.0975,1,4,0.2502,7,0,7,7,0
2,2,100,1,3,1,14, man031.jpg, cue_3.jpg,1,2.726,1,3,0.6581,3,0.6071,1,3,0.4933
2,2,101,3,0,0,187, man315.jpg, ,3,1.0384,1,4,0.2423,7,0,7,7,0
2,2,102,1,3,1,41, man070.jpg, cue_3.jpg,1,1.9659,1,2,2.266,3,0.7348,1,3,0.4286
2,2,103,1,2,2,222, man383.jpg, cue_2.jpg,2,5.0556,2,2,0.9534,3,0.9592,0,2,1.2584
2,2,104,3,0,0,161, man267.jpg, ,3,1.0351,1,4,0.2387,7,0,7,7,0
2,2,105,2,2,2,37, man064.jpg, cue_2.jpg,3,6.7306,0,2,1.2319,7,0,7,7,0
2,2,106,2,2,2,35, man062.jpg, cue_2.jpg,2,1.3773,1,4,0.6313,2,1.823,1,4,0.3349
2,2,107,3,0,0,181, man309.jpg, ,3,1.127,1,4,0.2474,7,0,7,7,0
2,2,108,2,2,2,109, man167.jpg, cue_2.jpg,2,1.7942,1,3,2.1026,2,2.8154,1,3,1.3835
2,2,109,1,2,2,140, man230.jpg, cue_2.jpg,2,2.8828,2,2,1.2095,2,1.6959,1,3,1.9671
2,2,110,2,3,1,113, man172.jpg, cue_3.jpg,2,1.5698,1,4,0.8154,3,0.6079,1,4,0.3225
2,2,111,2,3,1,208, man358.jpg, cue_3.jpg,2,1.3866,1,4,0.7516,3,1.3113,1,4,0.3602
2,2,112,1,3,1,217, man375.jpg, cue_3.jpg,1,1.2141,1,3,0.6979,3,2.2069,1,3,1.7102
2,2,113,3,0,0,203, man351.jpg, ,3,1.1344,1,4,0.2383,7,0,7,7,0
2,2,114,1,2,2,204, man352.jpg, cue_2.jpg,1,1.2257,1,4,0.6298,2,0.639,1,4,0.2707
2,2,115,3,0,0,241, man423.jpg, ,3,1.0661,1,4,0.2687,7,0,7,7,0
2,2,116,3,0,0,191, man328.jpg, ,3,0.8067,1,4,0.2444,7,0,7,7,0
2,2,117,3,0,0,244, man428.jpg, ,3,0.7673,1,4,0.2036,7,0,7,7,0
2,2,118,2,3,1,68, man109.jpg, cue_3.jpg,2,1.0674,1,3,0.622,3,0.991,1,3,0.9053
2,2,119,1,1,3,11, man025.jpg, cue_1.jpg,1,1.3848,1,3,1.0351,1,0.6709,1,3,0.5812
2,2,120,1,3,1,82, man126.jpg, cue_3.jpg,1,1.4739,1,3,0.5316,3,0.7665,1,4,0.4923
2,2,121,3,0,0,62, man100.jpg, ,3,1.6593,1,4,0.3427,7,0,7,7,0
2,2,122,3,0,0,149, man247.jpg, ,3,1.3259,1,4,0.7579,7,0,7,7,0
2,2,123,1,3,1,13, man029.jpg, cue_3.jpg,2,3.0837,2,3,0.8583,1,3.711,0,3,0.6796
2,2,124,1,3,1,193, man332.jpg, cue_3.jpg,1,1.1864,1,4,0.7842,1,1.8872,0,3,2.3834
2,2,125,3,0,0,16, man034.jpg, ,3,1.3125,1,4,0.2814,7,0,7,7,0
2,2,126,3,0,0,124, man191.jpg, ,3,0.8027,1,4,0.2084,7,0,7,7,0
2,2,127,3,0,0,186, man314.jpg, ,3,0.8286,1,4,0.2176,7,0,7,7,0
2,2,128,3,0,0,168, man278.jpg, ,3,0.6778,1,4,0.2491,7,0,7,7,0
2,2,129,1,1,3,256, man447.jpg, cue_1.jpg,1,2.0199,1,3,0.9106,1,0.3191,1,3,0.2981
2,2,130,3,0,0,237, man416.jpg, ,3,3.0427,1,4,0.3386,7,0,7,7,0
2,2,131,1,1,3,10, man024.jpg, cue_1.jpg,1,1.194,1,3,1.0156,1,0.8633,1,3,0.6479
2,2,132,1,3,1,227, man392.jpg, cue_3.jpg,2,2.4338,2,2,1.2748,3,1.0549,1,3,0.8075
2,2,133,1,2,2,6, man016.jpg, cue_2.jpg,1,2.1399,1,2,1.6178,3,0.6069,0,3,1.6032
2,2,134,1,2,2,188, man316.jpg, cue_2.jpg,2,1.0934,2,2,1.6232,2,1.6312,1,3,2.318
2,2,135,1,1,3,195, man336.jpg, cue_1.jpg,1,3.01,1,2,2.4193,1,0.6079,1,3,1.6033
2,2,136,3,0,0,131, man205.jpg, ,3,1.2852,1,4,0.2067,7,0,7,7,0
2,2,137,1,1,3,165, man275.jpg, cue_1.jpg,1,1.8507,1,3,0.9407,1,0.4472,1,4,0.4172
2,2,138,2,1,3,202, man350.jpg, cue_1.jpg,2,1.3169,1,4,1.165,1,0.3829,1,4,0.2321
2,2,139,2,1,3,238, man417.jpg, cue_1.jpg,2,1.7027,1,4,0.8786,1,0.2871,1,4,0.2369
2,2,140,1,3,1,7, man017.jpg, cue_3.jpg,2,2.1204,2,3,1.2291,3,0.799,1,3,0.7128
2,2,141,1,1,3,264, man463.jpg, cue_1.jpg,1,2.1438,1,4,2.0695,1,0.2559,1,4,0.227
2,2,142,2,2,2,98, man154.jpg, cue_2.jpg,2,2.5584,1,2,0.7866,2,0.9277,1,2,0.4876
2,2,143,3,0,0,127, man197.jpg, ,3,0.8901,1,4,0.1804,7,0,7,7,0
2,2,144,3,0,0,8, man019.jpg, ,3,0.738,1,4,0.2745,7,0,7,7,0
2,2,145,2,3,1,199, man341.jpg, cue_3.jpg,2,1.1647,1,3,0.6661,3,1.3753,1,3,0.5809
2,2,146,2,1,3,258, man451.jpg, cue_1.jpg,2,4.9616,1,2,2.7691,3,4.0309,0,2,1.6664
2,2,147,2,2,2,229, man401.jpg, cue_2.jpg,2,1.8261,1,3,1.5251,2,2.4309,1,2,0.7506
2,2,148,2,3,1,52, man086.jpg, cue_3.jpg,2,2.1803,1,4,2.4247,3,0.671,1,3,0.8698
2,2,149,3,0,0,106, man163.jpg, ,3,1.1907,1,4,0.2136,7,0,7,7,0
2,2,150,1,1,3,46, man077.jpg, cue_1.jpg,1,2.0805,1,4,0.6332,1,0.2878,1,4,0.2252
2,2,151,3,0,0,261, man460.jpg, ,3,1.0053,1,4,0.1786,7,0,7,7,0
2,2,152,1,2,2,86, man131.jpg, cue_2.jpg,2,1.5043,2,3,0.9742,2,1.6952,1,3,0.5752
2,2,153,1,2,2,205, man354.jpg, cue_2.jpg,2,2.2848,2,3,1.5949,2,0.4795,1,3,0.6768
2,2,154,1,2,2,242, man424.jpg, cue_2.jpg,1,1.8853,1,4,0.4615,1,0.3192,0,2,2.6999
2,2,155,3,0,0,198, man339.jpg, ,3,3.2318,1,4,0.664,7,0,7,7,0
2,2,156,3,0,0,77, man121.jpg, ,3,0.7997,1,4,0.239,7,0,7,7,0
2,2,157,3,0,0,49, man082.jpg, ,3,0.7145,1,4,0.1718,7,0,7,7,0
2,2,158,1,1,3,32, man059.jpg, cue_1.jpg,1,2.8901,1,3,0.9732,1,0.7028,1,3,0.5849
2,2,159,3,0,0,163, man271.jpg, ,3,1.3497,1,4,0.2363,7,0,7,7,0
2,2,160,3,0,0,226, man390.jpg, ,3,0.9358,1,4,0.2347,7,0,7,7,0
2,2,161,2,1,3,176, man298.jpg, cue_1.jpg,2,1.8674,1,3,1.3245,1,0.3197,1,3,0.2624
2,2,162,1,3,1,83, man128.jpg, cue_3.jpg,1,1.0245,1,3,0.9463,1,1.983,0,2,1.3533
2,2,163,2,1,3,60, man096.jpg, cue_1.jpg,1,1.9258,3,3,1.8737,1,1.7279,1,3,0.7808
2,2,164,3,0,0,236, man414.jpg, ,3,2.2092,1,4,0.1786,7,0,7,7,0
2,2,165,2,1,3,185, man313.jpg, cue_1.jpg,2,1.1856,1,3,0.8153,1,1.0229,1,4,1.3131
2,2,166,3,0,0,251, man437.jpg, ,3,0.8603,1,4,0.2185,7,0,7,7,0
2,2,167,2,1,3,103, man160.jpg, cue_1.jpg,2,1.2227,1,3,0.7869,1,0.671,1,3,0.3248
2,2,168,1,3,1,54, man089.jpg, cue_3.jpg,1,2.2208,1,4,0.7829,3,1.151,1,3,1.133
2,2,169,1,1,3,250, man436.jpg, cue_1.jpg,2,1.5067,2,3,2.963,3,2.271,0,2,1.3186
2,2,170,1,2,2,141, man233.jpg, cue_2.jpg,2,3.0423,2,2,1.1405,2,0.5756,1,3,0.7798
2,2,171,2,1,3,173, man287.jpg, cue_1.jpg,2,3.2321,1,2,1.1443,1,1.8551,1,2,1.7377
2,2,172,1,3,1,158, man259.jpg, cue_3.jpg,1,3.3661,1,2,0.921,3,2.4954,1,2,1.8004
2,2,173,2,2,2,179, man303.jpg, cue_2.jpg,2,2.3063,1,3,0.7851,2,0.7038,1,4,0.6078
2,2,174,2,3,1,39, man067.jpg, cue_3.jpg,2,2.4774,1,2,1.3652,3,1.1511,1,3,1.6404
2,2,175,2,3,1,95, man145.jpg, cue_3.jpg,2,1.2915,1,4,0.6289,3,0.4471,1,4,0.3268
2,2,176,1,1,3,2, man004.jpg, cue_1.jpg,2,2.4787,2,3,2.1024,1,1.6954,1,3,0.4862
2,2,177,2,2,2,183, man311.jpg, cue_2.jpg,2,1.2849,1,3,0.9127,2,0.5748,1,4,0.353
2,2,178,2,3,1,97, man153.jpg, cue_3.jpg,2,1.3515,1,4,0.5902,3,0.4788,1,4,0.7039
2,2,179,2,2,2,270, man471.jpg, cue_2.jpg,2,0.9998,1,3,0.9094,2,0.6079,1,4,0.3328
2,2,180,2,3,1,105, man162.jpg, cue_3.jpg,2,1.0602,1,4,0.5674,3,0.7676,1,4,0.3006
2,2,181,2,2,2,260, man459.jpg, cue_2.jpg,3,3.9113,0,2,0.6268,7,0,7,7,0
2,2,182,1,3,1,155, man255.jpg, cue_3.jpg,1,1.7102,1,3,2.2301,3,0.6069,1,4,0.9425
2,2,183,2,3,1,88, man135.jpg, cue_3.jpg,2,1.2287,1,3,0.6009,3,2.2392,1,3,1.5686
2,2,184,3,0,0,225, man389.jpg, ,3,2.084,1,4,0.3313,7,0,7,7,0
2,2,185,3,0,0,248, man433.jpg, ,3,1.027,1,4,0.2478,7,0,7,7,0
2,2,186,1,2,2,107, man165.jpg, cue_2.jpg,1,2.6585,1,2,1.1674,2,1.1515,1,3,1.2158
2,2,187,3,0,0,184, man312.jpg, ,3,0.834,1,4,0.3024,7,0,7,7,0
2,2,188,3,0,0,129, man202.jpg, ,3,0.7723,1,4,0.2447,7,0,7,7,0
2,2,189,2,3,1,224, man387.jpg, cue_3.jpg,2,3.7449,1,3,1.1716,3,0.703,1,3,0.418
2,2,190,2,3,1,72, man114.jpg, cue_3.jpg,2,1.0955,1,4,0.5053,3,0.8311,1,4,0.48
2,2,191,3,0,0,170, man281.jpg, ,1,2.4009,0,2,0.8431,1,1.247,0,2,0.9946
2,2,192,1,3,1,146, man244.jpg, cue_3.jpg,2,1.5186,2,3,0.6542,3,0.7679,1,4,1.6649
2,2,193,2,1,3,20, man040.jpg, cue_1.jpg,2,3.0086,1,3,1.3299,1,0.9598,1,4,0.3527
2,2,194,1,1,3,228, man396.jpg, cue_1.jpg,1,2.2473,1,3,4.4409,1,0.5117,1,3,1.0963
2,2,195,3,0,0,189, man322.jpg, ,3,1.0553,1,4,0.2425,7,0,7,7,0
2,2,196,1,2,2,92, man139.jpg, cue_2.jpg,1,2.6382,1,2,1.6788,1,2.5269,0,2,1.5798
2,2,197,1,3,1,134, man208.jpg, cue_3.jpg,1,2.8485,1,2,1.3688,3,0.6072,1,2,0.8355
2,2,198,1,2,2,130, man203.jpg, cue_2.jpg,1,1.6391,1,3,0.9138,2,0.8953,1,4,0.7089
2,2,199,3,0,0,249, man434.jpg, ,3,1.3048,1,4,0.2449,7,0,7,7,0
2,2,200,1,1,3,65, man104.jpg, cue_1.jpg,1,1.5356,1,4,0.7827,1,0.319,1,4,0.2549
2,2,201,2,2,2,210, man360.jpg, cue_2.jpg,2,2.6313,1,3,0.8913,2,0.5431,1,3,0.2704
2,2,202,1,2,2,145, man242.jpg, cue_2.jpg,1,1.2243,1,3,0.8845,2,1.024,1,3,0.2914
2,2,203,2,1,3,59, man095.jpg, cue_1.jpg,2,1.3401,1,3,0.9156,1,0.6709,1,4,0.5755
2,2,204,3,0,0,56, man092.jpg, ,3,0.826,1,4,0.2494,7,0,7,7,0
2,2,205,2,2,2,5, man010.jpg, cue_2.jpg,2,1.2202,1,3,0.9444,2,0.4154,1,4,0.4222
2,2,206,3,0,0,71, man112.jpg, ,3,1.5461,1,4,0.4729,7,0,7,7,0
2,2,207,2,1,3,63, man101.jpg, cue_1.jpg,2,1.8346,1,3,1.3571,1,2.9754,1,3,0.742
2,2,208,3,0,0,38, man066.jpg, ,3,1.3721,1,4,0.274,7,0,7,7,0
2,2,209,1,2,2,196, man337.jpg, cue_2.jpg,2,2.5401,2,2,0.8806,2,0.5759,1,2,1.8268
2,2,210,3,0,0,214, man370.jpg, ,3,1.1638,1,4,0.2505,7,0,7,7,0
2,2,211,1,3,1,102, man158.jpg, cue_3.jpg,2,3.9082,2,2,1.7771,3,2.2399,1,2,1.1279
2,2,212,1,2,2,169, man279.jpg, cue_2.jpg,1,3.8055,1,2,0.7466,2,1.791,1,2,0.5776
2,2,213,2,3,1,58, man094.jpg, cue_3.jpg,1,2.9744,3,2,0.7507,1,2.7517,0,2,0.3334
2,2,214,3,0,0,219, man378.jpg, ,3,1.0927,1,4,0.2144,7,0,7,7,0
2,2,215,1,1,3,206, man355.jpg, cue_1.jpg,1,2.4024,1,3,2.2533,1,0.191,1,3,0.1656
2,2,216,2,3,1,120, man187.jpg, cue_3.jpg,2,4.0358,1,2,1.6265,3,0.9911,1,3,0.652
2,2,217,3,0,0,43, man072.jpg, ,3,0.9322,1,4,0.2062,7,0,7,7,0
2,2,218,2,1,3,64, man102.jpg, cue_1.jpg,2,2.7311,1,3,0.8562,1,0.5113,1,3,0.174
2,2,219,2,2,2,115, man177.jpg, cue_2.jpg,2,1.0992,1,3,0.7496,2,0.3832,1,4,0.3013
2,2,220,2,1,3,147, man245.jpg, cue_1.jpg,2,1.6698,1,3,2.2871,1,0.16,1,3,0.1689
2,2,221,3,0,0,85, man130.jpg, ,3,1.0299,1,4,0.186,7,0,7,7,0
2,2,222,1,1,3,96, man149.jpg, cue_1.jpg,1,1.3842,1,2,1.9974,1,0.9271,1,3,0.8655
2,2,223,3,0,0,112, man171.jpg, ,3,0.9303,1,4,0.1871,7,0,7,7,0
2,2,224,1,3,1,79, man123.jpg, cue_3.jpg,1,2.3767,1,2,1.8128,1,0.5438,0,2,2.3048
2,2,225,2,1,3,144, man240.jpg, cue_1.jpg,2,1.9577,1,3,0.6589,1,0.5755,1,3,0.2063
2,2,226,1,1,3,42, man071.jpg, cue_1.jpg,1,2.9551,1,3,1.5187,1,0.4472,1,3,0.2034
2,2,227,3,0,0,26, man048.jpg, ,3,2.7282,1,4,0.2454,7,0,7,7,0
2,2,228,2,3,1,174, man289.jpg, cue_3.jpg,2,1.0857,1,4,1.2018,3,0.8951,1,4,0.2973
2,2,229,2,2,2,201, man348.jpg, cue_2.jpg,2,1.2179,1,2,1.6141,2,0.6387,1,3,0.8783
2,2,230,2,3,1,255, man446.jpg, cue_3.jpg,2,1.3432,1,4,0.8546,3,0.4795,1,4,0.3978
2,2,231,1,3,1,19, man039.jpg, cue_3.jpg,2,1.5061,2,2,1.9706,3,2.047,1,2,0.3293
2,2,232,1,3,1,164, man273.jpg, cue_3.jpg,1,1.1845,1,4,0.3964,3,0.5429,1,4,0.3576
2,2,233,1,2,2,25, man047.jpg, cue_2.jpg,1,1.2281,1,4,0.3444,2,0.5756,1,4,0.2245
2,2,234,3,0,0,216, man374.jpg, ,3,0.9406,1,4,0.2098,7,0,7,7,0
2,2,235,2,3,1,192, man330.jpg, cue_3.jpg,1,1.5689,3,4,0.8466,3,1.4079,1,4,1.1353
2,2,236,3,0,0,154, man253.jpg, ,3,1.2193,1,4,0.2093,7,0,7,7,0
2,2,237,2,3,1,230, man403.jpg, cue_3.jpg,2,1.8855,1,2,1.8378,3,0.4475,1,3,0.6187
2,2,238,2,3,1,197, man338.jpg, cue_3.jpg,2,1.8645,1,4,0.5061,3,0.8311,1,4,0.2887
2,2,239,3,0,0,67, man107.jpg, ,3,0.9381,1,4,0.2421,7,0,7,7,0
2,2,240,3,0,0,128, man198.jpg, ,3,1.0209,1,4,0.2098,7,0,7,7,0
2,2,241,1,2,2,240, man422.jpg, cue_2.jpg,2,0.9897,2,3,2.0038,2,1.5674,1,3,0.9405
2,2,242,3,0,0,182, man310.jpg, ,3,0.9394,1,4,0.2756,7,0,7,7,0
2,2,243,1,1,3,4, man007.jpg, cue_1.jpg,1,1.7097,1,3,1.1736,1,0.4795,1,4,1.5351
2,2,244,3,0,0,9, man022.jpg, ,3,1.5398,1,4,0.2747,7,0,7,7,0
2,2,245,3,0,0,51, man085.jpg, ,3,0.8169,1,4,0.2,7,0,7,7,0
2,2,246,1,1,3,218, man377.jpg, cue_1.jpg,1,0.9347,1,4,0.367,1,0.7677,1,4,0.1747
2,2,247,2,1,3,259, man453.jpg, cue_1.jpg,1,3.2769,3,4,0.9459,1,0.3839,1,4,0.2024
2,2,248,2,3,1,57, man093.jpg, cue_3.jpg,2,3.0152,1,3,3.3206,3,0.8952,1,3,0.2948
2,2,249,1,1,3,61, man099.jpg, cue_1.jpg,1,2.3674,1,3,0.8263,1,0.6076,1,3,0.1753
2,2,250,3,0,0,211, man361.jpg, ,3,1.0849,1,4,0.1747,7,0,7,7,0
2,2,251,1,1,3,119, man186.jpg, cue_1.jpg,1,3.1962,1,2,1.0134,1,1.279,1,2,0.1641
2,2,252,2,1,3,22, man042.jpg, cue_1.jpg,1,1.7948,3,3,0.6952,1,0.4151,1,3,1.158
2,2,253,2,1,3,263, man462.jpg, cue_1.jpg,1,2.4767,3,3,1.9404,1,0.3512,1,3,0.0975
2,2,254,2,3,1,117, man180.jpg, cue_3.jpg,2,1.8922,1,4,0.6925,3,1.3748,1,3,1.9971
2,2,255,2,1,3,231, man404.jpg, cue_1.jpg,2,1.6943,1,3,0.6949,1,1.1511,1,3,0.2005
2,2,256,1,1,3,157, man258.jpg, cue_1.jpg,1,1.3175,1,4,1.0671,1,0.7668,1,4,0.5752
2,2,257,3,0,0,253, man443.jpg, ,3,0.8765,1,4,0.2474,7,0,7,7,0
2,2,258,1,3,1,93, man141.jpg, cue_3.jpg,2,3.0423,2,3,2.4823,2,0.6711,0,3,0.2375
2,2,259,3,0,0,223, man386.jpg, ,3,4.0407,1,4,0.2068,7,0,7,7,0
2,2,260,1,2,2,89, man136.jpg, cue_2.jpg,2,2.9876,2,3,3.7897,2,3.7108,1,2,1.2483
2,2,261,2,1,3,148, man246.jpg, cue_1.jpg,2,1.9547,1,3,0.9442,1,0.5748,1,3,0.2551
2,2,262,3,0,0,139, man223.jpg, ,3,0.808,1,4,0.3116,7,0,7,7,0
2,2,263,3,0,0,23, man044.jpg, ,3,0.7356,1,4,0.1762,7,0,7,7,0
2,2,264,3,0,0,167, man277.jpg, ,3,1.1984,1,4,0.2182,7,0,7,7,0
2,2,265,3,0,0,215, man372.jpg, ,3,1.0321,1,4,0.2351,7,0,7,7,0
2,2,266,1,1,3,114, man174.jpg, cue_1.jpg,2,3.4956,2,2,1.1407,1,1.599,1,3,0.0966
2,2,267,3,0,0,177, man299.jpg, ,3,1.0896,1,4,0.1474,7,0,7,7,0
2,2,268,3,0,0,74, man117.jpg, ,3,0.7384,1,4,0.1149,7,0,7,7,0
2,2,269,3,0,0,18, man036.jpg, ,3,0.7713,1,4,0.1115,7,0,7,7,0
2,2,270,2,2,2,94, man144.jpg, cue_2.jpg,2,2.0508,1,3,2.8601,2,0.4475,1,3,0.16
3,1,1,2,1,3,250, man436.jpg, cue_1.jpg,2,1.9851,1,3,2.3146,1,4.0298,1,4,2.1137
3,1,2,1,3,2,120, man187.jpg, cue_3.jpg,1,1.4381,1,4,1.2013,3,4.382,1,4,0.8062
3,1,3,3,0,0,262, man461.jpg, ,1,3.0972,0,3,3.0926,1,3.4551,0,4,1.091
3,1,4,1,3,2,255, man446.jpg, cue_3.jpg,1,3.1623,1,3,1.4293,3,1.8556,1,4,0.6504
3,1,5,2,1,3,202, man350.jpg, cue_1.jpg,1,15.0767,3,2,1.0042,1,2.1111,1,4,2.0564
3,1,6,1,1,3,246, man430.jpg, cue_1.jpg,1,2.4397,1,4,0.9768,1,1.4391,1,4,0.8721
3,1,7,1,2,1,67, man107.jpg, cue_2.jpg,1,4.3635,1,3,3.1241,2,1.7594,1,4,0.9344
3,1,8,1,2,1,238, man417.jpg, cue_2.jpg,1,1.6045,1,4,0.6554,2,1.0233,1,4,1.1293
3,1,9,1,1,3,214, man370.jpg, cue_1.jpg,1,0.9589,1,4,2.8703,1,0.8953,1,4,0.7115
3,1,10,3,0,0,138, man222.jpg, ,3,1.6308,1,4,1.114,7,0,7,7,0
3,1,11,1,2,1,153, man252.jpg, cue_2.jpg,1,2.111,1,4,0.6955,2,0.8959,1,4,0.9638
3,1,12,2,1,3,8, man019.jpg, cue_1.jpg,2,3.9364,1,2,0.73,1,1.5994,1,4,0.8406
3,1,13,2,1,3,92, man139.jpg, cue_1.jpg,2,2.4085,1,4,2.5816,1,0.7354,1,4,1.3535
3,1,14,1,3,2,185, man313.jpg, cue_3.jpg,1,1.222,1,4,2.0023,3,1.9513,1,4,0.3956
3,1,15,3,0,0,218, man377.jpg, ,3,1.7585,1,4,0.79,7,0,7,7,0
3,1,16,2,3,2,32, man059.jpg, cue_3.jpg,2,2.3785,1,3,1.4624,3,1.2799,1,4,0.5143
3,1,17,1,2,1,88, man135.jpg, cue_2.jpg,1,1.4098,1,4,0.5342,2,0.7995,1,4,1.5816
3,1,18,3,0,0,264, man463.jpg, ,3,1.3124,1,4,1.5611,7,0,7,7,0
3,1,19,3,0,0,102, man158.jpg, ,3,0.7813,1,4,0.9866,7,0,7,7,0
3,1,20,3,0,0,114, man174.jpg, ,3,0.8724,1,4,0.3395,7,0,7,7,0
3,1,21,2,2,1,133, man207.jpg, cue_2.jpg,2,2.3146,1,4,0.7294,2,0.7355,1,4,0.5202
3,1,22,2,3,2,139, man223.jpg, cue_3.jpg,2,3.2746,1,4,0.6248,3,0.5435,1,4,0.3671
3,1,23,2,3,2,237, man416.jpg, cue_3.jpg,1,6.3394,3,2,1.0502,3,0.5432,1,4,0.6793
3,1,24,3,0,0,87, man133.jpg, ,3,0.8958,1,4,0.73,7,0,7,7,0
3,1,25,3,0,0,30, man056.jpg, ,3,0.9605,1,4,0.3439,7,0,7,7,0
3,1,26,1,2,1,89, man136.jpg, cue_2.jpg,1,2.6713,1,3,0.9106,2,0.6714,1,4,1.3874
3,1,27,2,3,2,239, man421.jpg, cue_3.jpg,2,4.0038,1,3,2.2541,2,2.2394,0,4,0.3843
3,1,28,3,0,0,194, man333.jpg, ,3,0.9014,1,4,0.783,7,0,7,7,0
3,1,29,2,2,1,38, man066.jpg, cue_2.jpg,2,1.7313,1,3,2.5224,2,1.8555,1,4,0.4178
3,1,30,2,2,1,96, man149.jpg, cue_2.jpg,2,2.5016,1,4,1.356,2,1.5998,1,4,0.9907
3,1,31,1,3,2,110, man168.jpg, cue_3.jpg,1,1.3224,1,4,0.4336,3,0.9912,1,4,0.6458
3,1,32,2,2,1,269, man468.jpg, cue_2.jpg,2,0.9278,1,4,0.4726,2,0.7996,1,4,0.4825
3,1,33,2,3,2,82, man126.jpg, cue_3.jpg,3,1.0894,0,4,0.4049,7,0,7,7,0
3,1,34,1,3,2,190, man326.jpg, cue_3.jpg,1,1.8974,1,4,3.1295,3,0.6715,1,4,0.4573
3,1,35,2,2,1,263, man462.jpg, cue_2.jpg,1,1.0677,3,4,0.3983,2,0.5759,1,4,0.3883
3,1,36,2,3,2,142, man234.jpg, cue_3.jpg,2,1.3535,1,4,2.0627,3,0.6077,1,4,0.2867
3,1,37,2,3,2,22, man042.jpg, cue_3.jpg,1,6.12,3,2,1.1432,3,3.1354,1,3,0.9617
3,1,38,1,2,1,3, man005.jpg, cue_2.jpg,1,4.0313,1,3,2.582,2,0.543,1,4,0.3857
3,1,39,1,3,2,141, man233.jpg, cue_3.jpg,1,3.4949,1,2,0.946,3,0.4473,1,4,0.6805
3,1,40,1,1,3,213, man366.jpg, cue_1.jpg,1,4.7371,1,4,0.5384,1,0.799,1,4,0.4489
3,1,41,1,1,3,232, man407.jpg, cue_1.jpg,1,2.4033,1,3,4.3019,1,5.5349,1,2,1.0882
3,1,42,1,3,2,265, man464.jpg, cue_3.jpg,1,1.8959,1,4,1.2721,3,1.1835,1,4,0.352
3,1,43,1,1,3,34, man061.jpg, cue_1.jpg,1,2.3744,1,4,0.4665,1,0.5756,1,4,0.5496
3,1,44,2,1,3,36, man063.jpg, cue_1.jpg,1,3.7146,3,2,0.5358,1,0.4795,1,4,1.1005
3,1,45,3,0,0,254, man445.JPG, ,3,1.0578,1,4,0.3427,7,0,7,7,0
3,1,46,2,3,2,18, man036.jpg, cue_3.jpg,1,10.574,3,2,1.7783,3,1.1831,1,4,0.293
3,1,47,2,2,1,70, man111.jpg, cue_2.jpg,1,3.3898,3,2,0.5914,2,2.0785,1,4,0.5263
3,1,48,2,3,2,20, man040.jpg, cue_3.jpg,1,1.134,3,4,0.4297,3,0.8956,1,4,0.4849
3,1,49,2,3,2,119, man186.jpg, cue_3.jpg,2,3.4287,1,4,1.1098,3,0.4473,1,4,0.3232
3,1,50,1,3,2,137, man221.jpg, cue_3.jpg,1,1.0644,1,4,0.5254,3,0.4796,1,4,0.2905
3,1,51,1,2,1,10, man024.jpg, cue_2.jpg,1,0.9091,1,4,1.2372,2,1.2791,1,4,0.2349
3,1,52,1,1,3,170, man281.jpg, cue_1.jpg,1,11.1743,1,1,2.5136,1,0.3507,1,4,1.3191
3,1,53,1,1,3,17, man035.jpg, cue_1.jpg,2,6.7584,2,1,0.6021,1,0.1917,1,4,1.4807
3,1,54,3,0,0,253, man443.jpg, ,3,1.0556,1,4,0.4986,7,0,7,7,0
3,1,55,2,3,2,208, man358.jpg, cue_3.jpg,2,1.1232,1,4,1.0436,3,1.0234,1,4,0.3641
3,1,56,1,1,3,1, man002.jpg, cue_1.jpg,1,0.866,1,4,0.6853,1,0.671,1,4,1.1866
3,1,57,1,3,2,160, man262.jpg, cue_3.jpg,1,1.0945,1,4,1.5283,3,0.9593,1,4,1.2632
3,1,58,1,2,1,68, man109.jpg, cue_2.jpg,1,1.1514,1,4,0.5265,2,0.64,1,4,0.3968
3,1,59,3,0,0,112, man171.jpg, ,3,0.9292,1,4,0.3459,7,0,7,7,0
3,1,60,1,1,3,93, man141.jpg, cue_1.jpg,1,1.504,1,4,1.841,1,0.5435,1,4,0.9723
3,1,61,3,0,0,81, man125.jpg, ,3,0.969,1,4,0.7823,7,0,7,7,0
3,1,62,3,0,0,126, man196.jpg, ,3,0.9,1,4,0.2376,7,0,7,7,0
3,1,63,3,0,0,85, man130.jpg, ,3,0.8089,1,4,0.3107,7,0,7,7,0
3,1,64,3,0,0,178, man301.jpg, ,3,0.6874,1,4,0.303,7,0,7,7,0
3,1,65,2,3,2,40, man068.jpg, cue_3.jpg,2,1.2267,1,4,0.5991,3,0.6393,1,4,0.3539
3,1,66,1,1,3,174, man289.jpg, cue_1.jpg,1,1.2244,1,4,0.4365,1,0.575,1,4,0.4559
3,1,67,1,2,1,195, man336.jpg, cue_2.jpg,1,1.6755,1,4,3.1249,2,0.5754,1,4,0.6462
3,1,68,3,0,0,121, man188.jpg, ,3,0.9628,1,4,0.474,7,0,7,7,0
3,1,69,2,1,3,252, man439.jpg, cue_1.jpg,2,1.0679,1,4,0.8145,1,0.6718,1,4,0.5274
3,1,70,1,2,1,175, man291.jpg, cue_2.jpg,1,1.135,1,4,0.3989,2,0.6391,1,4,0.4501
3,1,71,3,0,0,41, man070.jpg, ,3,0.7724,1,4,0.6274,7,0,7,7,0
3,1,72,2,3,2,79, man123.jpg, cue_3.jpg,2,1.0389,1,4,0.4989,3,0.4153,1,4,0.2997
3,1,73,3,0,0,168, man278.jpg, ,3,0.9643,1,4,0.2827,7,0,7,7,0
3,1,74,3,0,0,134, man208.jpg, ,3,0.8371,1,4,0.2733,7,0,7,7,0
3,1,75,3,0,0,227, man392.jpg, ,3,1.1316,1,4,2.4902,7,0,7,7,0
3,1,76,2,3,2,33, man060.jpg, cue_3.jpg,1,2.953,3,3,1.3245,3,0.959,1,4,0.6199
3,1,77,3,0,0,50, man084.jpg, ,3,0.7112,1,4,0.3133,7,0,7,7,0
3,1,78,2,1,3,248, man433.jpg, cue_1.jpg,2,6.3341,1,1,5.2392,1,0.319,1,4,1.3255
3,1,79,2,3,2,65, man104.jpg, cue_3.jpg,1,2.9874,3,2,0.8135,3,0.4799,1,4,0.3588
3,1,80,3,0,0,189, man322.jpg, ,3,1.1008,1,4,0.3019,7,0,7,7,0
3,1,81,2,3,2,90, man137.jpg, cue_3.jpg,2,3.3986,1,2,1.2078,3,0.3519,1,4,0.2933
3,1,82,3,0,0,117, man180.jpg, ,3,0.717,1,4,0.3034,7,0,7,7,0
3,1,83,3,0,0,135, man209.jpg, ,3,0.8407,1,4,0.2449,7,0,7,7,0
3,1,84,3,0,0,236, man414.jpg, ,3,0.7677,1,4,0.2389,7,0,7,7,0
3,1,85,3,0,0,44, man075.jpg, ,3,0.7465,1,4,0.2821,7,0,7,7,0
3,1,86,2,3,2,45, man076.jpg, cue_3.jpg,2,2.3403,1,2,0.8497,3,1.3754,1,4,0.4511
3,1,87,2,3,2,234, man412.jpg, cue_3.jpg,2,9.7624,1,1,1.0827,3,0.9914,1,4,0.3879
3,1,88,1,3,2,75, man118.jpg, cue_3.jpg,1,2.313,1,4,0.5358,3,0.5758,1,4,0.2323
3,1,89,1,3,2,97, man153.jpg, cue_3.jpg,1,4.1317,1,3,0.8855,3,0.8313,1,4,0.5843
3,1,90,3,0,0,217, man375.jpg, ,3,0.8742,1,4,0.2771,7,0,7,7,0
3,1,91,2,1,3,173, man287.jpg, cue_1.jpg,2,1.4385,1,3,3.6321,1,0.4789,1,4,0.8042
3,1,92,1,1,3,128, man198.jpg, cue_1.jpg,1,1.2238,1,3,2.931,1,0.5755,1,4,0.7037
3,1,93,3,0,0,158, man259.jpg, ,3,0.9675,1,4,0.2702,7,0,7,7,0
3,1,94,2,1,3,191, man328.jpg, cue_1.jpg,1,2.3763,3,3,0.6603,1,0.479,1,4,0.7714
3,1,95,1,1,3,95, man145.jpg, cue_1.jpg,1,0.9043,1,4,0.3676,1,0.511,1,4,0.4281
3,1,96,3,0,0,167, man277.jpg, ,3,0.7352,1,4,0.2718,7,0,7,7,0
3,1,97,1,1,3,215, man372.jpg, cue_1.jpg,1,4.1378,1,4,2.5545,1,0.5432,1,4,0.3934
3,1,98,1,2,1,192, man330.jpg, cue_2.jpg,1,0.8785,1,4,0.5669,2,0.7358,1,4,0.3536
3,1,99,2,2,1,122, man189.jpg, cue_2.jpg,2,1.4481,1,4,4.8266,2,0.7036,1,4,0.3223
3,1,100,2,1,3,205, man354.jpg, cue_1.jpg,1,2.9223,3,4,0.3669,1,0.4475,1,4,0.7783
3,1,101,2,3,2,242, man424.jpg, cue_3.jpg,2,3.1683,1,3,1.9467,3,1.4719,1,4,0.3953
3,1,102,1,3,2,7, man017.jpg, cue_3.jpg,1,5.3757,1,4,0.3979,3,5.5673,1,2,1.5681
3,1,103,1,1,3,53, man088.jpg, cue_1.jpg,1,1.158,1,4,0.3731,1,0.5435,1,4,0.4619
3,1,104,1,3,2,78, man122.jpg, cue_3.jpg,1,1.9195,1,3,1.6784,3,2.3674,1,4,0.3876
3,1,105,3,0,0,63, man101.jpg, ,3,0.8087,1,4,0.3401,7,0,7,7,0
3,1,106,1,2,1,98, man154.jpg, cue_2.jpg,1,1.2617,1,4,0.5367,2,0.48,1,4,0.3652
3,1,107,2,1,3,243, man427.jpg, cue_1.jpg,2,3.4271,1,1,4.339,1,0.3511,1,4,0.9736
3,1,108,2,3,2,71, man112.jpg, cue_3.jpg,2,6.3143,1,2,1.7099,3,1.1193,1,3,1.6413
3,1,109,2,2,1,171, man282.jpg, cue_2.jpg,2,6.122,1,2,0.9211,2,0.5435,1,4,0.8108
3,1,110,2,2,1,116, man179.jpg, cue_2.jpg,2,4.2065,1,2,1.0697,2,0.2554,1,4,0.6127
3,1,111,3,0,0,221, man382.jpg, ,3,0.8001,1,4,0.238,7,0,7,7,0
3,1,112,2,2,1,172, man283.jpg, cue_2.jpg,2,1.3214,1,3,0.7855,2,0.4476,1,4,0.6851
3,1,113,1,3,2,182, man310.jpg, cue_3.jpg,2,5.0913,2,2,1.5514,3,0.4793,1,4,0.359
3,1,114,3,0,0,100, man156.jpg, ,3,1.8552,1,4,0.209,7,0,7,7,0
3,1,115,3,0,0,177, man299.jpg, ,3,0.7497,1,4,0.2696,7,0,7,7,0
3,1,116,3,0,0,233, man410.jpg, ,3,0.6796,1,4,0.2185,7,0,7,7,0
3,1,117,2,1,3,107, man165.jpg, cue_1.jpg,2,4.2311,1,2,0.6293,1,0.32,1,4,0.7488
3,1,118,3,0,0,155, man255.jpg, ,3,1.0586,1,4,0.2779,7,0,7,7,0
3,1,119,2,1,3,260, man459.jpg, cue_1.jpg,2,2.2712,1,4,1.2633,1,0.4794,1,4,0.4196
3,1,120,1,3,2,268, man467.jpg, cue_3.jpg,1,1.2249,1,4,0.2771,3,0.6396,1,4,0.27
3,1,121,3,0,0,124, man191.jpg, ,3,0.8401,1,4,0.2444,7,0,7,7,0
3,1,122,1,1,3,57, man093.jpg, cue_1.jpg,2,2.3961,2,1,2.3304,1,0.2238,1,4,1.0387
3,1,123,2,2,1,130, man203.jpg, cue_2.jpg,2,5.0946,1,3,0.9145,2,0.3836,1,4,1.035
3,1,124,2,2,1,99, man155.jpg, cue_2.jpg,2,1.285,1,4,1.5185,2,0.9278,1,4,0.2629
3,1,125,1,1,3,94, man144.jpg, cue_1.jpg,1,1.3449,1,4,0.5994,1,0.5756,1,4,0.422
3,1,126,2,2,1,164, man273.jpg, cue_2.jpg,2,3.2097,1,2,1.0105,2,0.4793,1,4,0.7705
3,1,127,3,0,0,197, man338.jpg, ,3,0.7759,1,4,0.2791,7,0,7,7,0
3,1,128,2,1,3,60, man096.jpg, cue_1.jpg,2,3.1365,1,4,0.4275,1,0.4792,1,4,0.4852
3,1,129,2,3,2,199, man341.jpg, cue_3.jpg,1,1.862,3,4,0.4078,3,0.4791,1,4,0.2571
3,1,130,1,3,2,270, man471.jpg, cue_3.jpg,1,1.385,1,4,0.4333,3,0.4157,1,4,0.2688
3,1,131,2,2,1,166, man276.jpg, cue_2.jpg,2,2.183,1,1,3.4824,2,0.3194,1,4,0.5231
3,1,132,2,2,1,240, man422.jpg, cue_2.jpg,2,1.0345,1,4,0.7506,2,0.5115,1,4,0.3285
3,1,133,1,1,3,210, man360.jpg, cue_1.jpg,1,2.3347,1,4,2.7013,1,0.3194,1,4,0.3978
3,1,134,2,1,3,256, man447.jpg, cue_1.jpg,2,2.5593,1,3,2.0705,1,1.343,1,4,0.8064
3,1,135,1,2,1,148, man246.jpg, cue_2.jpg,1,4.874,1,2,1.485,2,1.2795,1,4,0.7121
3,1,136,1,3,2,179, man303.jpg, cue_3.jpg,1,5.9513,1,2,3.6056,3,1.2789,1,2,0.9998
3,1,137,1,3,2,140, man230.jpg, cue_3.jpg,1,4.611,1,2,2.4171,3,0.4793,1,4,0.3908
3,1,138,1,3,2,24, man045.jpg, cue_3.jpg,1,9.8999,1,2,3.5149,2,14.0799,0,1,0.5865
3,1,139,3,0,0,206, man355.jpg, ,3,1.0313,1,4,0.2502,7,0,7,7,0
3,1,140,2,1,3,113, man172.jpg, cue_1.jpg,2,3.3987,1,2,1.1759,1,0.3834,1,4,0.6134
3,1,141,1,3,2,198, man339.jpg, cue_3.jpg,1,2.7209,1,2,0.9421,3,1.9194,1,4,0.3571
3,1,142,1,3,2,4, man007.jpg, cue_3.jpg,1,2.4436,1,4,1.9079,3,0.6716,1,4,0.2956
3,1,143,1,2,1,183, man311.jpg, cue_2.jpg,1,1.216,1,4,1.3884,2,0.5436,1,4,0.2978
3,1,144,2,2,1,261, man460.jpg, cue_2.jpg,2,1.7312,1,4,1.6906,2,0.4473,1,4,0.1915
3,1,145,1,1,3,150, man248.jpg, cue_1.jpg,1,0.9381,1,4,0.3413,1,0.5111,1,4,0.4482
3,1,146,2,3,2,145, man242.jpg, cue_3.jpg,2,3.4265,1,3,1.4903,3,0.9598,1,4,0.2988
3,1,147,2,2,1,200, man345.jpg, cue_2.jpg,2,3.2034,1,4,2.0431,2,0.7036,1,4,0.329
3,1,148,1,3,2,109, man167.jpg, cue_3.jpg,3,5.1842,0,2,1.0145,7,0,7,7,0
3,1,149,3,0,0,77, man121.jpg, ,3,0.8651,1,4,0.2041,7,0,7,7,0
3,1,150,2,3,2,187, man315.jpg, cue_3.jpg,2,0.9369,1,4,0.561,3,0.9277,1,4,0.2895
3,1,151,2,2,1,26, man048.jpg, cue_2.jpg,2,2.7948,1,3,3.3172,2,2.3034,1,4,0.3287
3,1,152,3,0,0,209, man359.jpg, ,3,0.864,1,4,0.2502,7,0,7,7,0
3,1,153,1,2,1,211, man361.jpg, cue_2.jpg,1,1.7022,1,4,1.1024,2,0.6398,1,4,0.2602
3,1,154,1,3,2,61, man099.jpg, cue_3.jpg,1,7.9507,1,1,1.169,3,1.279,1,4,0.2648
3,1,155,2,2,1,161, man267.jpg, cue_2.jpg,2,1.0596,1,3,1.2708,2,0.4158,1,4,0.4787
3,1,156,3,0,0,47, man078.jpg, ,3,0.8617,1,4,0.6665,7,0,7,7,0
3,1,157,3,0,0,106, man163.jpg, ,3,0.6767,1,4,0.312,7,0,7,7,0
3,1,158,3,0,0,69, man110.jpg, ,3,0.768,1,4,0.2071,7,0,7,7,0
3,1,159,2,3,2,144, man240.jpg, cue_3.jpg,2,1.9638,1,3,2.6814,3,0.7672,1,4,0.2639
3,1,160,3,0,0,228, man396.jpg, ,3,0.834,1,4,0.3024,7,0,7,7,0
3,1,161,3,0,0,229, man401.jpg, ,3,1.7976,1,4,0.2823,7,0,7,7,0
3,1,162,3,0,0,176, man298.jpg, ,3,0.7727,1,4,0.2438,7,0,7,7,0
3,1,163,3,0,0,127, man197.jpg, ,3,0.5914,1,4,0.2462,7,0,7,7,0
3,1,164,1,2,1,37, man064.jpg, cue_2.jpg,1,1.7593,1,3,2.4867,2,0.5432,1,4,0.4867
3,1,165,2,3,2,80, man124.jpg, cue_3.jpg,2,2.1196,1,3,0.9742,3,0.6077,1,4,0.331
3,1,166,3,0,0,29, man055.jpg, ,3,0.8023,1,4,0.304,7,0,7,7,0
3,1,167,2,1,3,131, man205.jpg, cue_1.jpg,2,11.6246,1,1,1.5209,1,1.4396,1,3,3.5852
3,1,168,1,2,1,216, man374.jpg, cue_2.jpg,1,3.1064,1,3,0.9422,2,1.0234,1,4,0.2683
3,1,169,1,2,1,31, man058.jpg, cue_2.jpg,1,1.2544,1,4,0.3051,2,0.4474,1,4,0.3522
3,1,170,2,2,1,28, man052.jpg, cue_2.jpg,2,2.4045,1,3,0.6255,2,0.4472,1,4,0.7712
3,1,171,2,3,2,86, man131.jpg, cue_3.jpg,2,2.4403,1,2,2.0962,3,0.5114,1,4,0.2908
3,1,172,3,0,0,11, man025.jpg, ,3,0.8442,1,4,0.3125,7,0,7,7,0
3,1,173,1,2,1,72, man114.jpg, cue_2.jpg,2,4.5445,2,3,1.4895,2,0.3516,1,4,0.8992
3,1,174,3,0,0,35, man062.jpg, ,3,0.8666,1,4,0.3017,7,0,7,7,0
3,1,175,3,0,0,125, man193.jpg, ,3,0.6782,1,4,0.2815,7,0,7,7,0
3,1,176,1,1,3,157, man258.jpg, cue_1.jpg,1,1.1868,1,4,0.7206,1,0.4798,1,4,0.4917
3,1,177,3,0,0,48, man079.jpg, ,3,0.7184,1,4,0.2397,7,0,7,7,0
3,1,178,2,1,3,15, man032.jpg, cue_1.jpg,2,1.5472,1,4,0.314,1,0.544,1,4,0.3888
3,1,179,2,1,3,54, man089.jpg, cue_1.jpg,1,1.5767,3,4,0.5357,1,0.5112,1,4,1.4509
3,1,180,3,0,0,64, man102.jpg, ,3,0.8353,1,4,0.8797,7,0,7,7,0
3,1,181,1,2,1,244, man428.jpg, cue_2.jpg,1,1.2798,1,4,0.4101,2,0.4153,1,4,0.3583
3,1,182,1,1,3,76, man120.jpg, cue_1.jpg,1,0.6529,1,4,0.4009,1,0.5112,1,4,0.4576
3,1,183,3,0,0,231, man404.jpg, ,3,0.7461,1,4,0.2827,7,0,7,7,0
3,1,184,2,3,2,188, man316.jpg, cue_3.jpg,2,2.4059,1,4,0.3686,3,0.3831,1,4,0.2557
3,1,185,2,1,3,230, man403.jpg, cue_1.jpg,2,2.5681,1,4,0.878,1,0.5434,1,4,0.5452
3,1,186,2,1,3,247, man431.jpg, cue_1.jpg,2,2.1752,1,2,1.8419,1,0.2551,1,4,0.5867
3,1,187,3,0,0,207, man357.jpg, ,3,0.8394,1,4,0.2438,7,0,7,7,0
3,1,188,2,1,3,143, man237.jpg, cue_1.jpg,2,1.9506,1,3,0.8589,1,0.4471,1,4,0.4529
3,1,189,3,0,0,251, man437.jpg, ,3,0.7752,1,4,0.2462,7,0,7,7,0
3,1,190,1,2,1,212, man365.jpg, cue_2.jpg,1,0.897,1,4,0.3784,2,0.4473,1,4,0.8066
3,1,191,2,2,1,204, man352.jpg, cue_2.jpg,2,0.7473,1,4,0.3787,2,0.6391,1,4,0.3837
3,1,192,3,0,0,9, man022.jpg, ,3,0.8049,1,4,0.2745,7,0,7,7,0
3,1,193,1,1,3,13, man029.jpg, cue_1.jpg,1,1.2597,1,4,0.5035,1,0.4792,1,4,0.4616
3,1,194,1,2,1,132, man206.jpg, cue_2.jpg,1,1.1192,1,4,0.3038,2,0.4471,1,4,0.3355
3,1,195,2,3,2,23, man044.jpg, cue_3.jpg,2,2.8534,1,2,0.7826,3,0.5752,1,4,0.2924
3,1,196,3,0,0,43, man072.jpg, ,3,0.7886,1,4,0.2361,7,0,7,7,0
3,1,197,1,1,3,49, man082.jpg, cue_1.jpg,1,1.3516,1,4,0.3024,1,0.448,1,4,0.43
3,1,198,2,3,2,25, man047.jpg, cue_3.jpg,2,1.1852,1,4,0.7509,3,0.3513,1,4,0.2551
3,1,199,1,2,1,136, man212.jpg, cue_2.jpg,1,1.1619,1,4,0.3449,2,0.4153,1,4,0.3282
3,1,200,3,0,0,152, man250.jpg, ,3,0.9594,1,4,0.2468,7,0,7,7,0
3,1,201,3,0,0,224, man387.jpg, ,3,1.5376,1,4,0.272,7,0,7,7,0
3,1,202,1,2,1,62, man100.jpg, cue_2.jpg,1,1.1947,1,4,0.9203,2,0.5755,1,4,0.4566
3,1,203,1,1,3,16, man034.jpg, cue_1.jpg,1,2.251,1,3,2.1066,1,0.4154,1,4,0.3855
3,1,204,2,2,1,149, man247.jpg, cue_2.jpg,2,1.0945,1,4,0.2804,2,0.5112,1,4,0.355
3,1,205,3,0,0,203, man351.jpg, ,3,0.8767,1,4,0.2476,7,0,7,7,0
3,1,206,2,2,1,108, man166.jpg, cue_2.jpg,2,1.9225,1,4,0.5612,2,0.4791,1,4,0.3244
3,1,207,3,0,0,39, man067.jpg, ,3,0.7486,1,4,0.2363,7,0,7,7,0
3,1,208,1,1,3,266, man465.jpg, cue_1.jpg,1,1.4478,1,4,0.2826,1,0.4793,1,4,0.426
3,1,209,3,0,0,12, man027.jpg, ,3,0.8138,1,4,0.2504,7,0,7,7,0
3,1,210,1,2,1,159, man260.jpg, cue_2.jpg,1,3.9743,1,3,1.967,2,0.3194,1,4,0.3655
3,1,211,3,0,0,66, man106.jpg, ,3,0.6443,1,4,0.2171,7,0,7,7,0
3,1,212,2,2,1,156, man257.jpg, cue_2.jpg,2,1.2852,1,4,0.4947,2,0.4798,1,4,0.3248
3,1,213,3,0,0,169, man279.jpg, ,3,0.7472,1,4,0.2685,7,0,7,7,0
3,1,214,1,1,3,163, man271.jpg, cue_1.jpg,1,1.0626,1,4,0.7298,1,0.5431,1,4,0.4514
3,1,215,1,1,3,73, man115.jpg, cue_1.jpg,1,0.9336,1,4,0.3313,1,0.4796,1,4,0.3944
3,1,216,1,3,2,2, man004.jpg, cue_3.jpg,1,1.6632,1,4,0.3453,3,0.3194,1,4,0.3007
3,1,217,1,2,1,19, man039.jpg, cue_2.jpg,1,1.1253,1,4,0.4987,2,0.3833,1,4,1.1672
3,1,218,1,3,2,241, man423.jpg, cue_3.jpg,1,2.3082,1,4,0.371,3,0.3189,1,4,0.2608
3,1,219,3,0,0,104, man161.jpg, ,3,0.8611,1,4,0.2505,7,0,7,7,0
3,1,220,1,1,3,184, man312.jpg, cue_1.jpg,1,0.7093,1,4,0.4712,1,0.5753,1,4,0.4585
3,1,221,3,0,0,59, man095.jpg, ,3,0.7808,1,4,0.2822,7,0,7,7,0
3,1,222,3,0,0,105, man162.jpg, ,3,0.6442,1,4,0.2501,7,0,7,7,0
3,1,223,2,2,1,249, man434.jpg, cue_2.jpg,2,2.4688,1,4,0.9407,2,0.447,1,4,0.3211
3,1,224,1,3,2,51, man085.jpg, cue_3.jpg,1,0.776,1,4,0.4083,3,0.4155,1,4,0.2606
3,1,225,1,2,1,52, man086.jpg, cue_2.jpg,1,0.7346,1,3,4.5273,2,1.664,1,4,0.6509
3,1,226,3,0,0,118, man184.jpg, ,3,1.2528,1,4,0.2396,7,0,7,7,0
3,1,227,2,1,3,103, man160.jpg, cue_1.jpg,2,1.2255,1,4,0.4074,1,0.5435,1,4,0.3989
3,1,228,3,0,0,84, man129.jpg, ,3,0.7072,1,4,0.3091,7,0,7,7,0
3,1,229,3,0,0,46, man077.jpg, ,3,0.6219,1,4,0.2434,7,0,7,7,0
3,1,230,2,1,3,6, man016.jpg, cue_1.jpg,2,1.7108,1,3,1.7187,1,0.416,1,4,0.4604
3,1,231,1,1,3,162, man268.jpg, cue_1.jpg,1,1.1668,1,4,1.579,1,0.4795,1,4,0.3898
3,1,232,1,3,2,58, man094.jpg, cue_3.jpg,2,1.6428,2,3,1.1735,3,0.1916,1,4,0.2674
3,1,233,2,2,1,226, man390.jpg, cue_2.jpg,2,0.7727,1,4,0.4367,2,0.927,1,4,0.3306
3,1,234,3,0,0,196, man337.jpg, ,3,0.7379,1,4,0.2744,7,0,7,7,0
3,1,235,2,1,3,219, man378.jpg, cue_1.jpg,2,1.9965,1,2,3.2565,1,0.3513,1,4,0.608
3,1,236,2,2,1,258, man451.jpg, cue_2.jpg,2,1.1321,1,3,0.7781,2,0.9593,1,4,0.3857
3,1,237,3,0,0,111, man169.jpg, ,3,0.6147,1,4,0.3003,7,0,7,7,0
3,1,238,2,1,3,193, man332.jpg, cue_1.jpg,2,0.8689,1,4,0.3358,1,0.5754,1,4,0.3587
3,1,239,3,0,0,220, man380.jpg, ,3,0.6706,1,4,0.242,7,0,7,7,0
3,1,240,3,0,0,181, man309.jpg, ,3,0.7493,1,4,0.2053,7,0,7,7,0
3,1,241,3,0,0,146, man244.jpg, ,3,0.618,1,4,0.2076,7,0,7,7,0
3,1,242,3,0,0,55, man091.jpg, ,3,1.2902,1,4,0.2139,7,0,7,7,0
3,1,243,3,0,0,14, man031.jpg, ,3,0.994,1,4,0.2159,7,0,7,7,0
3,1,244,1,3,2,165, man275.jpg, cue_3.jpg,1,2.0202,1,3,0.7829,3,0.3194,1,4,0.2553
3,1,245,2,2,1,27, man050.jpg, cue_2.jpg,1,2.0581,3,4,0.4673,2,0.4473,1,4,0.3321
3,1,246,1,2,1,245, man429.jpg, cue_2.jpg,1,1.1553,1,4,0.4333,2,0.3509,1,4,0.3201
3,1,247,2,1,3,222, man383.jpg, cue_1.jpg,1,1.0001,3,4,0.2694,1,0.5113,1,4,0.3959
3,1,248,3,0,0,201, man348.jpg, ,3,2.1762,1,4,0.2767,7,0,7,7,0
3,1,249,2,2,1,101, man157.jpg, cue_2.jpg,1,9.3587,3,1,0.7261,2,0.8633,1,3,0.9301
3,1,250,3,0,0,151, man249.jpg, ,3,0.8963,1,4,0.2181,7,0,7,7,0
3,1,251,3,0,0,56, man092.jpg, ,3,0.6147,1,4,0.2042,7,0,7,7,0
3,1,252,3,0,0,186, man314.jpg, ,3,0.617,1,4,0.2385,7,0,7,7,0
3,1,253,1,1,3,21, man041.jpg, cue_1.jpg,1,2.1539,1,4,0.239,1,0.511,1,4,0.5268
3,1,254,2,1,3,259, man453.jpg, cue_1.jpg,2,1.4224,1,3,0.8502,1,0.5755,1,4,0.4189
3,1,255,3,0,0,147, man245.jpg, ,3,0.6491,1,4,0.2372,7,0,7,7,0
3,1,256,2,1,3,42, man071.jpg, cue_1.jpg,2,1.0966,1,4,0.4424,1,0.4794,1,4,0.3546
3,1,257,1,3,2,180, man304.jpg, cue_3.jpg,2,6.8892,2,2,0.7601,3,0.4155,1,4,0.2277
3,1,258,1,1,3,257, man450.jpg, cue_1.jpg,1,1.3452,1,4,0.2805,1,0.3512,1,4,0.4294
3,1,259,1,2,1,115, man177.jpg, cue_2.jpg,1,3.1683,1,3,1.9144,2,0.3836,1,4,0.4261
3,1,260,3,0,0,154, man253.jpg, ,3,0.8138,1,4,0.2822,7,0,7,7,0
3,1,261,2,2,1,267, man466.jpg, cue_2.jpg,1,3.1707,3,2,0.9114,2,0.3194,1,3,1.2909
3,1,262,3,0,0,91, man138.jpg, ,3,0.8102,1,4,0.2461,7,0,7,7,0
3,1,263,2,1,3,235, man413.jpg, cue_1.jpg,2,1.1547,1,4,0.5939,1,0.448,1,4,0.3891
3,1,264,2,3,2,5, man010.jpg, cue_3.jpg,2,1.0342,1,4,0.974,3,0.4795,1,4,0.3031
3,1,265,1,2,1,129, man202.jpg, cue_2.jpg,1,2.7292,1,4,0.3424,2,0.4155,1,4,0.3256
3,1,266,1,3,2,83, man128.jpg, cue_3.jpg,1,1.7096,1,4,0.2135,3,0.2554,1,4,0.2565
3,1,267,3,0,0,123, man190.jpg, ,3,0.8432,1,4,0.2795,7,0,7,7,0
3,1,268,3,0,0,74, man117.jpg, ,3,0.737,1,4,0.2095,7,0,7,7,0
3,1,269,3,0,0,223, man386.jpg, ,3,0.7161,1,4,0.2387,7,0,7,7,0
3,1,270,3,0,0,225, man389.jpg, ,3,0.9711,1,4,0.242,7,0,7,7,0
4,2,1,2,1,3,156, man257.jpg, cue_1.jpg,1,3.2213,3,2,3.5656,1,3.6786,1,2,4.077
4,2,2,3,0,0,211, man361.jpg, ,3,3.2868,1,3,2.3165,7,0,7,7,0
4,2,3,3,0,0,90, man137.jpg, ,3,1.3916,1,4,0.8208,7,0,7,7,0
4,2,4,3,0,0,254, man445.JPG, ,3,2.0864,1,3,1.1663,7,0,7,7,0
4,2,5,2,1,3,72, man114.jpg, cue_1.jpg,2,5.7305,1,3,1.5839,1,1.0226,1,4,1.3473
4,2,6,3,0,0,109, man167.jpg, ,1,5.9198,0,2,2.7433,2,3.6791,0,3,1.0972
4,2,7,1,1,3,116, man179.jpg, cue_1.jpg,2,5.8243,2,2,1.4348,1,0.9591,1,4,0.9345
4,2,8,2,1,3,27, man050.jpg, cue_1.jpg,1,2.8847,3,3,1.4025,1,0.7994,1,4,1.1345
4,2,9,2,1,3,70, man111.jpg, cue_1.jpg,1,2.6923,3,3,1.5548,1,1.0546,1,4,0.4202
4,2,10,3,0,0,28, man052.jpg, ,3,1.864,1,3,0.9217,7,0,7,7,0
4,2,11,1,2,1,190, man326.jpg, cue_2.jpg,1,4.0084,1,4,2.0638,2,2.4314,1,4,0.5141
4,2,12,1,2,1,219, man378.jpg, cue_2.jpg,1,2.0807,1,4,1.3062,2,1.376,1,4,0.3929
4,2,13,2,3,2,96, man149.jpg, cue_3.jpg,2,1.8214,1,3,1.8085,3,1.3748,1,3,0.65
4,2,14,1,2,1,110, man168.jpg, cue_2.jpg,1,4.9961,1,2,0.5621,1,2.8469,0,2,1.4406
4,2,15,3,0,0,209, man359.jpg, ,3,2.059,1,3,1.1082,7,0,7,7,0
4,2,16,2,2,1,107, man165.jpg, cue_2.jpg,2,1.769,1,3,1.5205,2,0.928,1,3,0.3289
4,2,17,2,1,3,67, man107.jpg, cue_1.jpg,2,2.0801,1,2,0.9206,1,0.5426,1,4,0.8745
4,2,18,1,3,2,246, man430.jpg, cue_3.jpg,1,1.3552,1,3,1.4899,3,0.8639,1,3,0.2371
4,2,19,1,3,2,204, man352.jpg, cue_3.jpg,1,1.61,1,4,0.9821,3,0.831,1,4,0.2011
4,2,20,1,2,1,49, man082.jpg, cue_2.jpg,1,2.4701,1,3,0.6539,2,1.0875,1,4,0.5477
4,2,21,1,2,1,234, man412.jpg, cue_2.jpg,1,1.6018,1,2,2.1579,1,1.6309,0,2,1.4223
4,2,22,1,1,3,263, man462.jpg, cue_1.jpg,2,4.6801,2,2,0.9474,1,0.8311,1,3,0.6159
4,2,23,3,0,0,146, man244.jpg, ,3,1.6033,1,3,0.3994,7,0,7,7,0
4,2,24,2,2,1,165, man275.jpg, cue_2.jpg,2,3.1719,1,2,0.7502,3,1.1838,0,3,0.3634
4,2,25,3,0,0,128, man198.jpg, ,1,2.0182,0,2,1.0369,1,0.671,0,3,0.26
4,2,26,3,0,0,9, man022.jpg, ,3,2.8118,1,3,0.4719,7,0,7,7,0
4,2,27,1,1,3,93, man141.jpg, cue_1.jpg,1,2.0896,1,2,0.6255,1,0.4472,1,3,0.4815
4,2,28,1,2,1,45, man076.jpg, cue_2.jpg,1,1.6683,1,3,0.6857,2,0.8636,1,4,0.8437
4,2,29,2,3,2,195, man336.jpg, cue_3.jpg,2,2.6506,1,2,2.4135,2,3.9035,0,3,0.1955
4,2,30,2,2,1,212, man365.jpg, cue_2.jpg,2,1.6003,1,3,0.8125,2,1.3434,1,4,0.2247
4,2,31,3,0,0,196, man337.jpg, ,3,2.093,1,3,0.3088,7,0,7,7,0
4,2,32,2,3,2,74, man117.jpg, cue_3.jpg,2,3.7248,1,3,0.7518,3,0.8631,1,3,0.2042
4,2,33,1,1,3,242, man424.jpg, cue_1.jpg,1,1.449,1,2,3.2902,1,0.6396,1,3,0.7743
4,2,34,3,0,0,171, man282.jpg, ,3,1.2594,1,3,0.1502,7,0,7,7,0
4,2,35,3,0,0,24, man045.jpg, ,3,1.5411,1,3,0.6907,7,0,7,7,0
4,2,36,1,3,2,81, man125.jpg, cue_3.jpg,1,2.4447,1,3,1.2378,3,0.6719,1,3,0.2286
4,2,37,2,2,1,104, man161.jpg, cue_2.jpg,2,2.494,1,2,1.8152,1,2.0469,0,3,1.0577
4,2,38,1,1,3,60, man096.jpg, cue_1.jpg,1,1.5006,1,2,0.8451,1,0.4795,1,4,0.2923
4,2,39,3,0,0,213, man366.jpg, ,3,2.237,1,3,0.2705,7,0,7,7,0
4,2,40,2,3,2,174, man289.jpg, cue_3.jpg,1,1.9285,3,3,1.0154,3,0.6389,1,3,0.1607
4,2,41,2,3,2,25, man047.jpg, cue_3.jpg,1,1.3407,3,3,0.9823,3,0.7995,1,3,0.1068
4,2,42,3,0,0,84, man129.jpg, ,3,1.5158,1,3,0.346,7,0,7,7,0
4,2,43,1,3,2,47, man078.jpg, cue_3.jpg,1,1.2796,1,4,1.4842,3,0.863,1,4,0.1048
4,2,44,2,1,3,7, man017.jpg, cue_1.jpg,2,3.3378,1,3,0.7812,1,1.472,1,3,0.622
4,2,45,2,2,1,101, man157.jpg, cue_2.jpg,2,1.2894,1,3,1.3308,2,0.8951,1,3,0.1004
4,2,46,3,0,0,124, man191.jpg, ,3,1.0934,1,3,0.1833,7,0,7,7,0
4,2,47,2,3,2,206, man355.jpg, cue_3.jpg,2,1.0289,1,4,0.7934,3,0.8635,1,4,0.0973
4,2,48,2,1,3,225, man389.jpg, cue_1.jpg,2,1.2519,1,3,0.9429,1,0.4798,1,3,0.0979
4,2,49,3,0,0,214, man370.jpg, ,3,1.539,1,3,0.1457,7,0,7,7,0
4,2,50,1,3,2,83, man128.jpg, cue_3.jpg,2,1.2168,2,3,0.7811,3,0.8637,1,3,0.1032
4,2,51,3,0,0,167, man277.jpg, ,3,1.1602,1,4,0.3431,7,0,7,7,0
4,2,52,3,0,0,113, man172.jpg, ,3,1.0201,1,4,0.1144,7,0,7,7,0
4,2,53,3,0,0,1, man002.jpg, ,3,0.8669,1,4,0.7178,7,0,7,7,0
4,2,54,2,2,1,108, man166.jpg, cue_2.jpg,2,1.4769,1,3,0.9186,2,0.9597,1,2,0.6783
4,2,55,2,1,3,163, man271.jpg, cue_1.jpg,2,1.1514,1,4,0.6866,1,0.4154,1,4,0.2076
4,2,56,2,3,2,223, man386.jpg, cue_3.jpg,2,1.8044,1,3,0.7202,3,0.6074,1,3,0.1035
4,2,57,1,3,2,57, man093.jpg, cue_3.jpg,1,2.5045,1,3,1.071,3,0.9596,1,3,0.7769
4,2,58,1,3,2,66, man106.jpg, cue_3.jpg,2,1.9172,2,3,0.7802,3,2.1114,1,3,0.1285
4,2,59,2,2,1,257, man450.jpg, cue_2.jpg,2,2.0174,1,3,0.8907,2,0.6076,1,4,0.493
4,2,60,1,3,2,240, man422.jpg, cue_3.jpg,1,1.387,1,3,1.2991,3,0.6077,1,3,0.066
4,2,61,1,3,2,230, man403.jpg, cue_3.jpg,1,1.1884,1,3,0.594,3,0.5116,1,3,0.0982
4,2,62,1,3,2,71, man112.jpg, cue_3.jpg,2,2.3361,2,2,1.3929,3,1.2474,1,4,0.1928
4,2,63,1,2,1,152, man250.jpg, cue_2.jpg,1,1.2458,1,3,0.9213,2,0.767,1,4,0.1613
4,2,64,3,0,0,115, man177.jpg, ,3,1.1835,1,4,0.5892,7,0,7,7,0
4,2,65,3,0,0,39, man067.jpg, ,3,0.9059,1,4,0.1454,7,0,7,7,0
4,2,66,2,3,2,19, man039.jpg, cue_3.jpg,2,1.2184,1,2,1.3267,3,0.8633,1,4,0.8336
4,2,67,2,2,1,250, man436.jpg, cue_2.jpg,2,1.2198,1,3,0.9433,2,0.7037,1,4,0.1382
4,2,68,3,0,0,208, man358.jpg, ,3,1.1939,1,4,0.3114,7,0,7,7,0
4,2,69,1,1,3,237, man416.jpg, cue_1.jpg,1,3.5194,1,4,1.2419,1,0.8637,1,3,0.2582
4,2,70,1,1,3,13, man029.jpg, cue_1.jpg,1,1.2442,1,3,0.8533,1,0.4472,1,4,0.0958
4,2,71,2,1,3,256, man447.jpg, cue_1.jpg,1,1.5049,3,3,0.7531,1,0.4474,1,4,0.1101
4,2,72,2,3,2,150, man248.jpg, cue_3.jpg,1,2.2705,3,3,0.6546,3,0.9915,1,4,0.1367
4,2,73,2,3,2,33, man060.jpg, cue_3.jpg,2,1.3844,1,3,0.5576,3,2.4635,1,4,0.1422
4,2,74,1,2,1,79, man123.jpg, cue_2.jpg,1,2.7171,1,3,0.7303,2,0.5754,1,3,0.1923
4,2,75,1,3,2,15, man032.jpg, cue_3.jpg,1,2.368,1,4,0.62,3,1.8875,1,4,0.0975
4,2,76,3,0,0,77, man121.jpg, ,3,1.8237,1,4,0.3097,7,0,7,7,0
4,2,77,2,1,3,239, man421.jpg, cue_1.jpg,2,1.7424,1,3,1.8768,1,0.479,1,3,0.3667
4,2,78,3,0,0,265, man464.jpg, ,3,1.0314,1,4,0.2184,7,0,7,7,0
4,2,79,2,2,1,114, man174.jpg, cue_2.jpg,2,1.4162,1,4,1.4202,2,1.3752,1,4,0.1648
4,2,80,3,0,0,243, man427.jpg, ,3,1.1241,1,4,0.4365,7,0,7,7,0
4,2,81,2,2,1,23, man044.jpg, cue_2.jpg,2,1.1915,1,4,0.7891,2,1.0553,1,4,0.1331
4,2,82,1,1,3,202, man350.jpg, cue_1.jpg,1,1.8945,1,4,0.8547,1,0.5431,1,4,0.1715
4,2,83,2,2,1,34, man061.jpg, cue_2.jpg,1,2.5375,3,4,0.6545,2,0.8313,1,3,0.2869
4,2,84,1,1,3,193, man332.jpg, cue_1.jpg,1,1.3201,1,3,0.9121,1,0.4157,1,3,0.0715
4,2,85,1,1,3,235, man413.jpg, cue_1.jpg,1,1.322,1,3,0.4661,1,0.319,1,3,0.2876
4,2,86,1,3,2,53, man088.jpg, cue_3.jpg,1,1.1931,1,3,0.7587,3,1.3753,1,4,0.3309
4,2,87,3,0,0,144, man240.jpg, ,3,1.0917,1,4,0.2455,7,0,7,7,0
4,2,88,1,2,1,141, man233.jpg, cue_2.jpg,1,1.8564,1,3,0.498,3,0.8634,0,3,0.1022
4,2,89,3,0,0,267, man466.jpg, ,3,1.001,1,4,0.1424,7,0,7,7,0
4,2,90,3,0,0,94, man144.jpg, ,3,1.0213,1,4,0.1779,7,0,7,7,0
4,2,91,1,3,2,231, man404.jpg, cue_3.jpg,2,2.9115,2,2,1.2691,3,1.1838,1,3,0.2055
4,2,92,3,0,0,191, man328.jpg, ,3,1.0983,1,4,0.1396,7,0,7,7,0
4,2,93,2,1,3,261, man460.jpg, cue_1.jpg,2,1.8015,1,3,1.231,1,0.479,1,3,0.3582
4,2,94,3,0,0,126, man196.jpg, ,3,1.052,1,4,0.1751,7,0,7,7,0
4,2,95,1,3,2,162, man268.jpg, cue_3.jpg,2,1.2114,2,3,0.6657,3,1.0231,1,4,0.0977
4,2,96,3,0,0,97, man153.jpg, ,3,0.9307,1,4,0.1223,7,0,7,7,0
4,2,97,2,2,1,125, man193.jpg, cue_2.jpg,2,1.388,1,3,0.6879,2,0.7034,1,3,0.4537
4,2,98,2,1,3,21, man041.jpg, cue_1.jpg,2,2.0562,1,4,0.4974,1,0.4472,1,4,0.3288
4,2,99,1,3,2,31, man058.jpg, cue_3.jpg,2,1.472,2,3,0.9458,3,0.5432,1,4,0.0661
4,2,100,2,2,1,251, man437.jpg, cue_2.jpg,2,0.9965,1,4,0.6022,2,0.7997,1,4,0.1093
4,2,101,3,0,0,232, man407.jpg, ,3,0.9914,1,4,0.1494,7,0,7,7,0
4,2,102,2,2,1,176, man298.jpg, cue_2.jpg,2,1.3806,1,3,0.6021,2,0.575,1,4,0.232
4,2,103,1,2,1,69, man110.jpg, cue_2.jpg,1,1.0898,1,4,0.7254,2,3.1673,1,4,0.6408
4,2,104,1,1,3,215, man372.jpg, cue_1.jpg,2,1.9607,2,3,0.9849,1,0.4793,1,3,0.3307
4,2,105,3,0,0,147, man245.jpg, ,3,1.1861,1,4,0.1757,7,0,7,7,0
4,2,106,2,1,3,205, man354.jpg, cue_1.jpg,2,1.117,1,2,1.0052,1,0.5121,1,4,0.8772
4,2,107,1,2,1,129, man202.jpg, cue_2.jpg,1,3.0053,1,3,0.6849,2,1.0231,1,3,0.6461
4,2,108,1,3,2,75, man118.jpg, cue_3.jpg,2,1.1839,2,3,0.6217,3,1.5358,1,3,0.1913
4,2,109,2,3,2,88, man135.jpg, cue_3.jpg,2,1.1827,1,3,0.5885,3,0.9276,1,3,0.1081
4,2,110,2,2,1,2, man004.jpg, cue_2.jpg,1,6.1891,3,2,0.8575,1,1.1514,0,2,0.516
4,2,111,3,0,0,179, man303.jpg, ,3,1.6661,1,4,0.1411,7,0,7,7,0
4,2,112,3,0,0,155, man255.jpg, ,3,0.9879,1,4,0.146,7,0,7,7,0
4,2,113,3,0,0,253, man443.jpg, ,3,1.377,1,4,0.1828,7,0,7,7,0
4,2,114,2,3,2,182, man310.jpg, cue_3.jpg,2,1.1885,1,4,0.6583,3,0.7351,1,4,0.1027
4,2,115,3,0,0,48, man079.jpg, ,3,1.3868,1,4,0.2369,7,0,7,7,0
4,2,116,2,2,1,51, man085.jpg, cue_2.jpg,2,1.5094,1,3,0.7607,2,0.5754,1,4,0.0955
4,2,117,2,2,1,197, man338.jpg, cue_2.jpg,2,1.0565,1,4,1.1397,2,1.1831,1,4,0.0955
4,2,118,1,1,3,149, man247.jpg, cue_1.jpg,1,2.0821,1,3,0.6347,1,0.479,1,4,0.1392
4,2,119,1,3,2,80, man124.jpg, cue_3.jpg,1,1.37,1,3,0.6528,3,0.7361,1,4,0.1965
4,2,120,2,1,3,228, man396.jpg, cue_1.jpg,2,1.0893,1,4,0.6272,1,0.351,1,4,0.1052
4,2,121,1,2,1,16, man034.jpg, cue_2.jpg,1,1.2903,1,4,1.2646,2,1.4395,1,4,0.097
4,2,122,3,0,0,99, man155.jpg, ,3,1.5699,1,4,0.1756,7,0,7,7,0
4,2,123,3,0,0,46, man077.jpg, ,3,2.0449,1,4,0.215,7,0,7,7,0
4,2,124,1,1,3,236, man414.jpg, cue_1.jpg,2,1.9553,2,3,0.7206,1,0.4153,1,4,0.0956
4,2,125,3,0,0,224, man387.jpg, ,3,1.0247,1,4,0.1175,7,0,7,7,0
4,2,126,3,0,0,145, man242.jpg, ,3,0.9659,1,4,0.0766,7,0,7,7,0
4,2,127,2,3,2,105, man162.jpg, cue_3.jpg,2,1.0864,1,4,0.4642,3,0.4475,1,4,0.1049
4,2,128,2,2,1,203, man351.jpg, cue_2.jpg,2,1.6403,1,3,0.8528,2,0.6715,1,3,0.1317
4,2,129,2,2,1,175, man291.jpg, cue_2.jpg,2,1.4114,1,4,0.5038,2,5.1518,1,4,0.2339
4,2,130,3,0,0,3, man005.jpg, ,3,1.2855,1,4,0.364,7,0,7,7,0
4,2,131,2,3,2,160, man262.jpg, cue_3.jpg,2,1.2847,1,4,1.8382,3,0.8953,1,3,0.2667
4,2,132,1,1,3,157, man258.jpg, cue_1.jpg,1,2.3407,1,3,1.2022,1,0.5435,1,3,0.488
4,2,133,3,0,0,221, man382.jpg, ,3,1.0649,1,4,0.2822,7,0,7,7,0
4,2,134,2,2,1,245, man429.jpg, cue_2.jpg,2,3.1718,1,3,0.5599,2,0.5432,1,3,0.4164
4,2,135,2,3,2,259, man453.jpg, cue_3.jpg,2,2.1161,1,3,1.53,2,0.4471,0,3,0.4232
4,2,136,3,0,0,249, man434.jpg, ,3,1.067,1,4,0.1735,7,0,7,7,0
4,2,137,3,0,0,238, man417.jpg, ,3,0.6838,1,4,0.0775,7,0,7,7,0
4,2,138,1,1,3,227, man392.jpg, cue_1.jpg,1,2.0802,1,3,0.9208,1,0.4152,1,3,0.0953
4,2,139,2,3,2,154, man253.jpg, cue_3.jpg,2,1.2805,1,4,0.5387,3,0.7997,1,4,0.1292
4,2,140,2,3,2,229, man401.jpg, cue_3.jpg,2,1.0888,1,4,0.5628,3,0.9274,1,4,0.195
4,2,141,1,1,3,168, man278.jpg, cue_1.jpg,2,1.2799,2,3,0.538,1,1.6956,1,3,0.2036
4,2,142,3,0,0,270, man471.jpg, ,3,1.1924,1,4,0.15,7,0,7,7,0
4,2,143,2,3,2,178, man301.jpg, cue_3.jpg,1,2.213,3,3,0.5359,3,1.055,1,2,0.5481
4,2,144,2,3,2,269, man468.jpg, cue_3.jpg,2,1.1224,1,4,0.7227,3,0.607,1,4,0.1997
4,2,145,1,1,3,194, man333.jpg, cue_1.jpg,1,1.4469,1,4,1.146,1,0.448,1,4,0.0702
4,2,146,1,1,3,200, man345.jpg, cue_1.jpg,1,1.2886,1,4,0.53,1,0.384,1,4,0.1055
4,2,147,2,1,3,187, man315.jpg, cue_1.jpg,1,1.7233,3,4,0.5625,1,0.3193,1,4,0.0768
4,2,148,3,0,0,18, man036.jpg, ,3,1.0544,1,4,0.1137,7,0,7,7,0
4,2,149,2,2,1,65, man104.jpg, cue_2.jpg,2,1.1206,1,4,0.6266,2,0.6076,1,4,0.1101
4,2,150,1,2,1,260, man459.jpg, cue_2.jpg,1,2.3665,1,3,0.699,2,1.407,1,3,0.7695
4,2,151,1,3,2,64, man102.jpg, cue_3.jpg,1,1.5746,1,3,0.532,3,0.7674,1,3,0.0767
4,2,152,1,3,2,35, man062.jpg, cue_3.jpg,2,2.3644,2,3,0.7946,1,1.6635,0,3,0.547
4,2,153,3,0,0,43, man072.jpg, ,3,1.1211,1,4,0.1104,7,0,7,7,0
4,2,154,2,2,1,63, man101.jpg, cue_2.jpg,2,1.1859,1,4,0.4316,2,0.5432,1,4,0.3256
4,2,155,1,2,1,102, man158.jpg, cue_2.jpg,3,3.5809,0,2,0.8865,7,0,7,7,0
4,2,156,3,0,0,169, man279.jpg, ,3,0.9666,1,4,0.1414,7,0,7,7,0
4,2,157,3,0,0,135, man209.jpg, ,3,1.773,1,3,0.6872,7,0,7,7,0
4,2,158,2,3,2,42, man071.jpg, cue_3.jpg,2,1.2588,1,3,0.8855,3,0.8951,1,3,0.138
4,2,159,1,3,2,76, man120.jpg, cue_3.jpg,2,4.6176,2,2,1.0157,3,0.8959,1,1,0.6466
4,2,160,3,0,0,216, man374.jpg, ,3,1.1502,1,4,0.0793,7,0,7,7,0
4,2,161,3,0,0,41, man070.jpg, ,3,0.7696,1,4,0.1127,7,0,7,7,0
4,2,162,1,3,2,170, man281.jpg, cue_3.jpg,2,0.9609,2,3,0.5687,3,1.4072,1,3,0.6101
4,2,163,1,3,2,62, man100.jpg, cue_3.jpg,1,2.0158,1,4,0.89,3,0.4793,1,4,0.0964
4,2,164,1,2,1,120, man187.jpg, cue_2.jpg,3,1.4414,0,2,0.979,7,0,7,7,0
4,2,165,1,2,1,103, man160.jpg, cue_2.jpg,2,1.7605,2,3,1.4943,3,2.079,0,3,0.1749
4,2,166,2,3,2,143, man237.jpg, cue_3.jpg,2,3.9335,1,3,0.6002,3,0.576,1,3,0.7738
4,2,167,2,3,2,37, man064.jpg, cue_3.jpg,1,2.571,3,4,0.9425,3,0.9597,1,4,0.142
4,2,168,1,1,3,100, man156.jpg, cue_1.jpg,1,2.2507,1,2,0.6547,2,3.2312,0,2,0.9067
4,2,169,3,0,0,252, man439.jpg, ,3,1.0022,1,4,0.2717,7,0,7,7,0
4,2,170,2,1,3,184, man312.jpg, cue_1.jpg,2,1.8017,1,3,0.8454,1,0.3515,1,3,0.0743
4,2,171,2,3,2,122, man189.jpg, cue_3.jpg,2,1.3066,1,3,0.7889,3,0.608,1,3,1.9614
4,2,172,1,1,3,217, man375.jpg, cue_1.jpg,1,2.332,1,4,0.4741,1,0.3197,1,4,0.0719
4,2,173,1,1,3,222, man383.jpg, cue_1.jpg,1,1.3863,1,3,1.5196,2,0.6395,0,3,0.0998
4,2,174,1,1,3,73, man115.jpg, cue_1.jpg,3,1.2529,0,4,0.2397,7,0,7,7,0
4,2,175,1,2,1,56, man092.jpg, cue_2.jpg,1,2.6352,1,4,0.652,2,0.5432,1,4,0.1026
4,2,176,3,0,0,117, man180.jpg, ,3,0.9379,1,4,0.1142,7,0,7,7,0
4,2,177,1,2,1,20, man040.jpg, cue_2.jpg,3,1.5385,0,4,0.1774,7,0,7,7,0
4,2,178,3,0,0,30, man056.jpg, ,3,1.1829,1,4,0.0735,7,0,7,7,0
4,2,179,1,3,2,153, man252.jpg, cue_3.jpg,1,1.4704,1,3,0.5603,3,0.4796,1,3,0.2914
4,2,180,3,0,0,186, man314.jpg, ,3,0.892,1,4,0.1183,7,0,7,7,0
4,2,181,3,0,0,262, man461.jpg, ,3,1.7643,1,4,0.2678,7,0,7,7,0
4,2,182,3,0,0,32, man059.jpg, ,3,1.0939,1,4,0.1197,7,0,7,7,0
4,2,183,2,2,1,132, man206.jpg, cue_2.jpg,2,1.4161,1,3,0.524,2,0.4155,1,4,0.1936
4,2,184,3,0,0,138, man222.jpg, ,3,0.8962,1,4,0.122,7,0,7,7,0
4,2,185,2,2,1,136, man212.jpg, cue_2.jpg,2,1.0988,1,3,0.62,2,0.4474,1,4,0.1105
4,2,186,1,2,1,199, man341.jpg, cue_2.jpg,2,1.2119,2,3,0.5065,2,0.8313,1,3,0.5786
4,2,187,2,1,3,189, man322.jpg, cue_1.jpg,1,1.3751,3,2,1.0772,1,1.535,1,4,0.5501
4,2,188,3,0,0,180, man304.jpg, ,3,0.9328,1,4,0.0769,7,0,7,7,0
4,2,189,1,2,1,233, man410.jpg, cue_2.jpg,1,1.1506,1,3,0.5257,2,0.3516,1,4,0.1038
4,2,190,3,0,0,258, man451.jpg, ,3,1.1277,1,4,0.0893,7,0,7,7,0
4,2,191,2,1,3,241, man423.jpg, cue_1.jpg,1,1.8671,3,3,0.5709,3,1.1197,0,3,0.1327
4,2,192,3,0,0,127, man197.jpg, ,3,0.9307,1,4,0.0766,7,0,7,7,0
4,2,193,2,3,2,78, man122.jpg, cue_3.jpg,1,1.1503,3,3,0.4614,3,0.6395,1,4,0.1106
4,2,194,1,1,3,266, man465.jpg, cue_1.jpg,1,1.8229,1,3,0.6244,1,0.4477,1,3,0.1317
4,2,195,1,2,1,111, man169.jpg, cue_2.jpg,1,1.8274,1,3,0.6303,2,0.4793,1,3,0.2308
4,2,196,1,2,1,29, man055.jpg, cue_2.jpg,1,1.2155,1,3,0.6226,3,0.5112,0,3,0.1102
4,2,197,3,0,0,87, man133.jpg, ,3,0.9265,1,4,0.0554,7,0,7,7,0
4,2,198,1,2,1,58, man094.jpg, cue_2.jpg,1,1.1307,1,3,0.4743,2,0.5114,1,4,0.2074
4,2,199,2,1,3,98, man154.jpg, cue_1.jpg,1,1.0534,3,3,0.5606,1,0.9593,1,3,0.1595
4,2,200,3,0,0,54, man089.jpg, ,3,0.9897,1,3,0.1158,7,0,7,7,0
4,2,201,2,1,3,6, man016.jpg, cue_1.jpg,3,1.3144,0,4,0.1402,7,0,7,7,0
4,2,202,1,3,2,188, man316.jpg, cue_3.jpg,3,2.0598,0,3,0.501,7,0,7,7,0
4,2,203,2,3,2,52, man086.jpg, cue_3.jpg,2,1.0613,1,4,0.7589,3,0.5754,1,4,0.3831
4,2,204,3,0,0,119, man186.jpg, ,3,0.8363,1,4,0.0493,7,0,7,7,0
4,2,205,3,0,0,10, man024.jpg, ,3,0.7719,1,4,0.115,7,0,7,7,0
4,2,206,2,1,3,226, man390.jpg, cue_1.jpg,2,1.5045,1,3,0.7878,2,1.568,0,4,1.9516
4,2,207,1,2,1,185, man313.jpg, cue_2.jpg,1,1.123,1,4,0.6264,2,0.7355,1,4,0.0734
4,2,208,3,0,0,133, man207.jpg, ,3,1.4518,1,4,0.1744,7,0,7,7,0
4,2,209,3,0,0,22, man042.jpg, ,3,1.2286,1,4,0.2139,7,0,7,7,0
4,2,210,3,0,0,183, man311.jpg, ,3,0.8369,1,4,0.1454,7,0,7,7,0
4,2,211,2,2,1,38, man066.jpg, cue_2.jpg,1,2.5922,3,3,0.6271,3,0.5751,0,3,0.0632
4,2,212,3,0,0,140, man230.jpg, ,3,0.706,1,4,0.1158,7,0,7,7,0
4,2,213,3,0,0,142, man234.jpg, ,3,0.6761,1,4,0.1195,7,0,7,7,0
4,2,214,2,3,2,201, man348.jpg, cue_3.jpg,2,2.9838,1,3,0.7946,3,0.8313,1,3,0.1653
4,2,215,2,2,1,95, man145.jpg, cue_2.jpg,2,1.4436,1,4,0.4386,2,0.6077,1,4,0.1058
4,2,216,3,0,0,14, man031.jpg, ,2,0.971,0,4,0.2727,1,2.1121,0,1,0.493
4,2,217,2,3,2,68, man109.jpg, cue_3.jpg,2,2.3334,1,4,0.5708,2,0.7674,0,3,0.29
4,2,218,3,0,0,8, man019.jpg, ,3,0.9073,1,4,0.4048,7,0,7,7,0
4,2,219,3,0,0,172, man283.jpg, ,3,0.8414,1,4,0.1176,7,0,7,7,0
4,2,220,1,3,2,248, man433.jpg, cue_3.jpg,1,1.702,1,4,0.494,3,0.7675,1,4,0.1361
4,2,221,2,2,1,181, man309.jpg, cue_2.jpg,1,1.0957,3,3,0.7295,2,0.7999,1,4,0.5205
4,2,222,2,1,3,218, man377.jpg, cue_1.jpg,2,2.856,1,3,0.7838,1,0.3841,1,3,0.206
4,2,223,3,0,0,148, man246.jpg, ,3,1.0669,1,4,0.1707,7,0,7,7,0
4,2,224,3,0,0,55, man091.jpg, ,3,0.7476,1,4,0.1076,7,0,7,7,0
4,2,225,2,1,3,44, man075.jpg, cue_1.jpg,1,4.4926,3,3,1.6457,1,0.4799,1,3,0.0694
4,2,226,1,1,3,210, man360.jpg, cue_1.jpg,1,1.9598,1,3,0.4694,3,0.6071,0,3,0.2951
4,2,227,3,0,0,268, man467.jpg, ,3,1.2477,1,4,0.1541,7,0,7,7,0
4,2,228,2,2,1,198, man339.jpg, cue_2.jpg,3,1.1623,0,3,0.6973,7,0,7,7,0
4,2,229,1,3,2,164, man273.jpg, cue_3.jpg,1,1.41,1,4,1.1721,3,1.4077,1,4,0.5207
4,2,230,3,0,0,137, man221.jpg, ,3,0.8082,1,4,0.1499,7,0,7,7,0
4,2,231,3,0,0,123, man190.jpg, ,3,1.1569,1,4,0.1782,7,0,7,7,0
4,2,232,3,0,0,192, man330.jpg, ,3,1.5695,1,3,0.3031,7,0,7,7,0
4,2,233,1,3,2,173, man287.jpg, cue_3.jpg,1,1.2877,1,3,0.5291,3,0.671,1,3,0.2359
4,2,234,2,1,3,26, man048.jpg, cue_1.jpg,2,1.3535,1,3,0.6243,1,0.2236,1,3,0.1718
4,2,235,1,2,1,85, man130.jpg, cue_2.jpg,2,3.3377,2,3,0.877,1,0.3508,0,3,0.233
4,2,236,2,2,1,11, man025.jpg, cue_2.jpg,2,1.8284,1,4,0.3754,2,3.2313,1,4,0.3509
4,2,237,2,2,1,82, man126.jpg, cue_2.jpg,2,1.3175,1,3,1.4536,2,0.4794,1,3,0.5876
4,2,238,3,0,0,130, man203.jpg, ,3,1.3523,1,3,0.687,7,0,7,7,0
4,2,239,2,3,2,220, man380.jpg, cue_3.jpg,2,1.4796,1,4,0.4094,2,3.4881,0,4,0.3249
4,2,240,3,0,0,40, man068.jpg, ,3,1.0522,1,4,0.2714,7,0,7,7,0
4,2,241,1,1,3,86, man131.jpg, cue_1.jpg,1,1.3213,1,3,0.4631,1,0.2874,1,3,0.1919
4,2,242,1,3,2,207, man357.jpg, cue_3.jpg,2,2.7494,2,3,0.474,3,0.6714,1,3,0.1049
4,2,243,2,3,2,61, man099.jpg, cue_3.jpg,2,1.61,1,3,0.8542,3,0.7354,1,3,0.2585
4,2,244,3,0,0,139, man223.jpg, ,3,1.5325,1,3,0.3462,7,0,7,7,0
4,2,245,3,0,0,161, man267.jpg, ,3,2.2727,1,3,0.5309,7,0,7,7,0
4,2,246,1,2,1,264, man463.jpg, cue_2.jpg,1,0.9937,1,4,0.4077,2,0.6718,1,4,0.0735
4,2,247,3,0,0,134, man208.jpg, ,3,1.2577,1,3,0.4709,7,0,7,7,0
4,2,248,2,1,3,36, man063.jpg, cue_1.jpg,2,3.0485,1,3,0.9204,3,1.6955,0,3,0.1699
4,2,249,1,1,3,159, man260.jpg, cue_1.jpg,1,1.2882,1,3,0.5295,1,0.5757,1,4,0.5141
4,2,250,2,1,3,4, man007.jpg, cue_1.jpg,2,1.2815,1,3,0.5069,1,0.2876,1,4,0.3615
4,2,251,2,1,3,17, man035.jpg, cue_1.jpg,2,1.1833,1,3,1.0051,1,0.767,1,3,0.0974
4,2,252,1,1,3,247, man431.jpg, cue_1.jpg,1,1.1199,1,3,0.8826,1,0.3519,1,3,0.1744
4,2,253,3,0,0,92, man139.jpg, ,3,1.1479,1,3,0.3464,7,0,7,7,0
4,2,254,2,3,2,12, man027.jpg, cue_3.jpg,2,1.0903,1,4,0.4976,3,0.6712,1,4,0.0978
4,2,255,1,2,1,244, man428.jpg, cue_2.jpg,2,0.9628,2,2,1.9783,3,1.5999,0,4,0.6109
4,2,256,3,0,0,59, man095.jpg, ,3,5.4705,1,3,0.7289,7,0,7,7,0
4,2,257,1,2,1,151, man249.jpg, cue_2.jpg,1,2.2074,1,3,0.4024,1,0.3516,0,3,0.0976
4,2,258,2,1,3,112, man171.jpg, cue_1.jpg,2,2.8506,1,4,1.3065,1,2.9429,1,2,0.7757
4,2,259,1,1,3,89, man136.jpg, cue_1.jpg,2,2.2527,2,3,1.5818,1,0.5115,1,3,0.4208
4,2,260,1,1,3,255, man446.jpg, cue_1.jpg,2,1.6405,2,3,0.6255,2,0.4472,0,2,0.9331
4,2,261,3,0,0,50, man084.jpg, ,3,0.9952,1,4,0.6972,7,0,7,7,0
4,2,262,1,3,2,5, man010.jpg, cue_3.jpg,3,1.6331,0,3,0.4426,7,0,7,7,0
4,2,263,2,1,3,166, man276.jpg, cue_1.jpg,2,1.2149,1,2,1.1143,1,0.5437,1,2,0.5811
4,2,264,3,0,0,121, man188.jpg, ,3,0.9299,1,4,0.3459,7,0,7,7,0
4,2,265,1,2,1,177, man299.jpg, cue_2.jpg,1,1.9853,1,3,0.7494,3,0.9593,0,3,0.2926
4,2,266,3,0,0,91, man138.jpg, ,3,1.9492,1,3,0.4422,7,0,7,7,0
4,2,267,1,2,1,158, man259.jpg, cue_2.jpg,1,1.9818,1,3,1.1786,2,0.8955,1,3,0.1302
4,2,268,1,1,3,118, man184.jpg, cue_1.jpg,2,2.0181,2,3,0.7488,1,2.3676,1,3,0.8731
4,2,269,1,3,2,106, man163.jpg, cue_3.jpg,1,1.6101,1,3,0.566,2,1.4074,0,3,0.4821
4,2,270,2,1,3,131, man205.jpg, cue_1.jpg,3,1.6671,0,3,0.7795,7,0,7,7,0
5,1,1,2,3,1,64, man102.jpg, cue_3.jpg,2,3.5617,1,3,1.9708,3,3.9671,1,4,2.0579
5,1,2,3,0,0,121, man188.jpg, ,1,2.7125,0,2,3.2544,1,1.9193,0,2,0.8129
5,1,3,1,1,2,11, man025.jpg, cue_1.jpg,1,1.5833,1,4,4.0907,1,1.1831,1,4,0.7507
5,1,4,1,2,3,73, man115.jpg, cue_2.jpg,1,3.4925,1,4,1.2016,2,1.1194,1,4,1.0228
5,1,5,1,3,1,47, man078.jpg, cue_3.jpg,1,1.2556,1,4,2.0366,3,1.2145,1,4,0.7149
5,1,6,2,1,2,111, man169.jpg, cue_1.jpg,1,1.3143,3,4,1.3702,1,0.7678,1,4,0.8321
5,1,7,2,3,1,223, man386.jpg, cue_3.jpg,1,1.6342,3,4,0.8773,3,0.9913,1,4,0.5902
5,1,8,1,1,2,87, man133.jpg, cue_1.jpg,1,0.939,1,4,0.9148,1,0.6394,1,4,0.6402
5,1,9,2,2,3,252, man439.jpg, cue_2.jpg,2,2.3121,1,3,1.6577,2,0.9274,1,4,1.3888
5,1,10,2,2,3,105, man162.jpg, cue_2.jpg,2,4.9973,1,4,3.8939,2,1.1838,1,4,0.6077
5,1,11,2,3,1,179, man303.jpg, cue_3.jpg,2,2.444,1,3,2.3571,1,0.991,0,1,3.3357
5,1,12,3,0,0,194, man333.jpg, ,3,2.879,1,4,1.1119,7,0,7,7,0
5,1,13,3,0,0,104, man161.jpg, ,3,1.8224,1,4,0.7533,7,0,7,7,0
5,1,14,3,0,0,22, man042.jpg, ,3,2.5673,1,4,0.8586,7,0,7,7,0
5,1,15,3,0,0,129, man202.jpg, ,3,1.2611,1,4,0.5657,7,0,7,7,0
5,1,16,3,0,0,172, man283.jpg, ,3,0.709,1,4,0.3749,7,0,7,7,0
5,1,17,1,1,2,99, man155.jpg, cue_1.jpg,1,1.325,1,4,1.1091,1,0.9275,1,4,0.5891
5,1,18,2,3,1,240, man422.jpg, cue_3.jpg,2,1.0681,1,4,0.9744,3,1.1517,1,4,0.5159
5,1,19,2,2,3,166, man276.jpg, cue_2.jpg,1,3.3638,3,3,0.9823,2,1.9202,1,4,0.9718
5,1,20,2,1,2,80, man124.jpg, cue_1.jpg,2,1.4475,1,4,2.0752,1,1.2476,1,4,0.5431
5,1,21,1,1,2,162, man268.jpg, cue_1.jpg,1,1.6111,1,4,1.0499,1,0.5115,1,4,0.6796
5,1,22,1,3,1,270, man471.jpg, cue_3.jpg,1,3.4239,1,4,2.5117,3,0.7674,1,4,0.5494
5,1,23,3,0,0,250, man436.jpg, ,3,1.0915,1,4,0.4692,7,0,7,7,0
5,1,24,1,3,1,123, man190.jpg, cue_3.jpg,1,2.0552,1,3,1.2325,3,1.8229,1,4,1.2637
5,1,25,3,0,0,138, man222.jpg, ,3,1.0235,1,4,0.8522,7,0,7,7,0
5,1,26,3,0,0,69, man110.jpg, ,3,0.8058,1,4,0.2756,7,0,7,7,0
5,1,27,2,3,1,115, man177.jpg, cue_3.jpg,2,1.1335,1,3,1.2275,3,1.7597,1,4,2.1914
5,1,28,3,0,0,184, man312.jpg, ,3,0.9049,1,4,0.4007,7,0,7,7,0
5,1,29,3,0,0,36, man063.jpg, ,3,1.8949,1,4,0.3431,7,0,7,7,0
5,1,30,3,0,0,218, man377.jpg, ,3,1.0219,1,4,0.3101,7,0,7,7,0
5,1,31,1,2,3,237, man416.jpg, cue_2.jpg,2,1.4174,2,3,2.5112,2,1.2795,1,4,0.6874
5,1,32,3,0,0,1, man002.jpg, ,3,1.061,1,4,0.4107,7,0,7,7,0
5,1,33,2,2,3,49, man082.jpg, cue_2.jpg,2,1.1037,1,4,0.8809,2,2.2399,1,4,0.4293
5,1,34,1,1,2,206, man355.jpg, cue_1.jpg,1,2.4322,1,4,1.0181,1,1.0877,1,4,0.8645
5,1,35,3,0,0,6, man016.jpg, ,3,1.1841,1,4,0.303,7,0,7,7,0
5,1,36,2,2,3,186, man314.jpg, cue_2.jpg,2,2.2158,1,4,1.6906,2,1.5363,1,4,0.4182
5,1,37,2,1,2,149, man247.jpg, cue_1.jpg,2,1.6381,1,4,1.1686,1,1.1838,1,4,0.3972
5,1,38,1,2,3,5, man010.jpg, cue_2.jpg,1,2.2099,1,4,1.1728,2,0.7998,1,4,0.3207
5,1,39,1,1,2,88, man135.jpg, cue_1.jpg,1,1.1928,1,4,0.9815,1,0.3838,1,4,0.3325
5,1,40,2,3,1,35, man062.jpg, cue_3.jpg,1,2.9796,3,4,0.5985,3,0.7682,1,4,0.3305
5,1,41,2,3,1,145, man242.jpg, cue_3.jpg,1,2.4995,3,4,0.6985,3,0.6716,1,4,0.2558
5,1,42,2,3,1,208, man358.jpg, cue_3.jpg,2,1.3676,1,3,0.8478,3,3.1678,1,4,0.2305
5,1,43,3,0,0,108, man166.jpg, ,3,0.9939,1,4,0.3426,7,0,7,7,0
5,1,44,2,3,1,95, man145.jpg, cue_3.jpg,1,1.7905,3,4,0.9469,3,1.0878,1,4,0.4609
5,1,45,1,1,2,183, man311.jpg, cue_1.jpg,1,1.0843,1,4,0.6884,1,0.4476,1,4,0.3515
5,1,46,2,1,2,187, man315.jpg, cue_1.jpg,1,4.5178,3,4,0.6644,1,0.4156,1,4,0.3943
5,1,47,3,0,0,188, man316.jpg, ,3,0.9753,1,4,0.2781,7,0,7,7,0
5,1,48,2,1,2,262, man461.jpg, cue_1.jpg,1,2.1754,3,4,1.1393,1,0.8642,1,4,0.3993
5,1,49,2,3,1,68, man109.jpg, cue_3.jpg,2,2.0195,1,3,1.07,3,1.6001,1,4,2.5738
5,1,50,1,2,3,220, man380.jpg, cue_2.jpg,1,2.2788,1,4,1.1422,1,4.4793,0,3,0.8104
5,1,51,2,2,3,163, man271.jpg, cue_2.jpg,2,3.6777,1,3,1.8749,2,1.1517,1,4,0.8338
5,1,52,2,1,2,204, man352.jpg, cue_1.jpg,2,2.1172,1,4,0.9227,1,0.5761,1,4,0.3967
5,1,53,2,3,1,112, man171.jpg, cue_3.jpg,2,1.2153,1,4,1.7735,3,2.5919,1,4,1.3172
5,1,54,1,1,2,201, man348.jpg, cue_1.jpg,1,1.2513,1,4,1.9982,1,0.4482,1,4,0.3586
5,1,55,2,1,2,161, man267.jpg, cue_1.jpg,1,1.1011,3,4,0.7792,1,0.4479,1,4,0.4578
5,1,56,2,2,3,150, man248.jpg, cue_2.jpg,2,3.0841,1,4,1.2428,2,1.6957,1,4,0.3029
5,1,57,2,1,2,198, man339.jpg, cue_1.jpg,1,5.1657,3,3,0.9105,1,0.5442,1,4,0.6724
5,1,58,1,3,1,245, man429.jpg, cue_3.jpg,1,1.0335,1,4,4.5576,1,7.3916,0,2,1.2237
5,1,59,2,1,2,214, man370.jpg, cue_1.jpg,2,3.5939,1,4,0.8219,1,0.4437,1,4,0.4289
5,1,60,1,3,1,185, man313.jpg, cue_3.jpg,1,1.2799,1,4,1.434,3,0.8639,1,4,0.2643
5,1,61,2,1,2,233, man410.jpg, cue_1.jpg,1,2.5948,3,4,1.3018,1,0.3192,1,4,0.2565
5,1,62,2,1,2,217, man375.jpg, cue_1.jpg,2,1.1293,1,4,0.6996,1,0.4477,1,4,0.2664
5,1,63,2,1,2,254, man445.JPG, cue_1.jpg,2,3.124,1,2,1.7096,1,0.6073,1,4,0.7506
5,1,64,1,3,1,74, man117.jpg, cue_3.jpg,1,1.1884,1,4,1.7779,3,1.1517,1,4,0.3258
5,1,65,3,0,0,96, man149.jpg, ,3,1.0851,1,4,0.3673,7,0,7,7,0
5,1,66,3,0,0,239, man421.jpg, ,3,0.9968,1,4,0.2509,7,0,7,7,0
5,1,67,2,1,2,14, man031.jpg, cue_1.jpg,2,1.2511,1,3,1.1046,1,0.6719,1,4,0.549
5,1,68,1,1,2,63, man101.jpg, cue_1.jpg,1,3.4592,1,4,0.6896,1,0.416,1,4,0.2582
5,1,69,2,1,2,174, man289.jpg, cue_1.jpg,1,0.9911,3,4,0.5941,3,4.2878,0,4,0.3885
5,1,70,1,2,3,192, man330.jpg, cue_2.jpg,1,1.1935,1,4,0.6634,2,0.5758,1,4,0.3221
5,1,71,3,0,0,222, man383.jpg, ,3,0.9683,1,4,0.241,7,0,7,7,0
5,1,72,3,0,0,20, man040.jpg, ,3,2.3483,1,4,0.2831,7,0,7,7,0
5,1,73,1,3,1,193, man332.jpg, cue_3.jpg,1,1.1872,1,4,0.8466,3,0.6398,1,4,0.225
5,1,74,2,3,1,85, man130.jpg, cue_3.jpg,2,1.293,1,4,1.5263,3,1.9839,1,4,0.353
5,1,75,3,0,0,100, man156.jpg, ,3,0.9687,1,4,0.2074,7,0,7,7,0
5,1,76,1,1,2,7, man017.jpg, cue_1.jpg,1,2.6364,1,4,3.4343,3,2.2077,0,3,0.7671
5,1,77,1,3,1,9, man022.jpg, cue_3.jpg,1,1.2177,1,4,0.7204,3,0.5118,1,4,0.2361
5,1,78,2,2,3,248, man433.jpg, cue_2.jpg,1,0.9993,3,4,0.5891,2,1.2472,1,4,0.3028
5,1,79,3,0,0,65, man104.jpg, ,3,1.2238,1,4,0.2438,7,0,7,7,0
5,1,80,3,0,0,18, man036.jpg, ,3,1.1189,1,4,0.2074,7,0,7,7,0
5,1,81,3,0,0,228, man396.jpg, ,3,0.8439,1,4,0.2165,7,0,7,7,0
5,1,82,1,1,2,19, man039.jpg, cue_1.jpg,1,1.2195,1,4,1.1046,1,1.184,1,4,0.2878
5,1,83,3,0,0,255, man446.jpg, ,3,0.9367,1,4,0.177,7,0,7,7,0
5,1,84,2,3,1,39, man067.jpg, cue_3.jpg,2,1.7586,1,4,1.2365,3,0.8642,1,4,0.6199
5,1,85,2,2,3,137, man221.jpg, cue_2.jpg,1,2.791,3,3,1.3616,1,6.176,0,3,0.8683
5,1,86,3,0,0,59, man095.jpg, ,3,0.9335,1,4,0.2055,7,0,7,7,0
5,1,87,2,2,3,238, man417.jpg, cue_2.jpg,2,1.1623,1,4,2.5194,2,0.4796,1,4,0.2668
5,1,88,2,3,1,25, man047.jpg, cue_3.jpg,2,4.1006,1,3,4.0885,3,4.64,1,4,1.0338
5,1,89,1,3,1,226, man390.jpg, cue_3.jpg,1,3.5242,1,4,0.7514,3,1.9521,1,4,0.7813
5,1,90,3,0,0,229, man401.jpg, ,3,0.8657,1,4,0.1723,7,0,7,7,0
5,1,91,2,2,3,72, man114.jpg, cue_2.jpg,2,1.2587,1,4,0.8538,2,0.8636,1,4,0.2691
5,1,92,3,0,0,43, man072.jpg, ,3,0.9349,1,4,0.1752,7,0,7,7,0
5,1,93,3,0,0,159, man260.jpg, ,3,0.7151,1,4,0.142,7,0,7,7,0
5,1,94,2,2,3,151, man249.jpg, cue_2.jpg,2,2.2864,1,1,4.0458,2,1.4393,1,4,1.2234
5,1,95,1,3,1,53, man088.jpg, cue_3.jpg,1,1.5773,1,4,0.8225,2,0.8639,0,4,0.335
5,1,96,3,0,0,86, man131.jpg, ,3,2.3104,1,4,0.1494,7,0,7,7,0
5,1,97,1,3,1,203, man351.jpg, cue_3.jpg,1,2.2761,1,4,0.9799,3,3.7759,1,4,0.5877
5,1,98,2,1,2,127, man197.jpg, cue_1.jpg,2,1.0628,1,4,1.1158,1,1.0873,1,4,0.4634
5,1,99,1,1,2,114, man174.jpg, cue_1.jpg,1,1.3127,1,1,0.6655,1,1.2156,1,4,1.2571
5,1,100,3,0,0,98, man154.jpg, ,3,7.3387,1,2,2.6465,7,0,7,7,0
5,1,101,2,1,2,230, man403.jpg, cue_1.jpg,2,6.027,1,2,1.8079,1,0.5435,1,4,0.5886
5,1,102,3,0,0,24, man045.jpg, ,3,0.9693,1,4,0.1762,7,0,7,7,0
5,1,103,3,0,0,268, man467.jpg, ,3,0.9423,1,4,0.1183,7,0,7,7,0
5,1,104,3,0,0,200, man345.jpg, ,3,0.8044,1,4,0.116,7,0,7,7,0
5,1,105,1,2,3,251, man437.jpg, cue_2.jpg,1,1.1247,1,4,0.9175,1,0.3837,0,4,0.494
5,1,106,3,0,0,205, man354.jpg, ,3,0.8943,1,4,0.1527,7,0,7,7,0
5,1,107,3,0,0,106, man163.jpg, ,3,0.9025,1,4,0.1452,7,0,7,7,0
5,1,108,3,0,0,211, man361.jpg, ,3,0.8961,1,4,0.1543,7,0,7,7,0
5,1,109,3,0,0,37, man064.jpg, ,3,1.6413,1,4,0.1797,7,0,7,7,0
5,1,110,1,2,3,210, man360.jpg, cue_2.jpg,1,1.3446,1,3,1.209,2,0.7679,1,4,0.325
5,1,111,2,3,1,178, man301.jpg, cue_3.jpg,2,1.2122,1,4,1.0812,3,1.3118,1,4,0.2914
5,1,112,1,1,2,199, man341.jpg, cue_1.jpg,1,1.3572,1,4,1.0435,1,1.1202,1,4,0.6798
5,1,113,3,0,0,140, man230.jpg, ,3,2.3688,1,4,0.9409,7,0,7,7,0
5,1,114,1,1,2,60, man096.jpg, cue_1.jpg,1,1.3548,1,4,1.5533,1,0.4159,1,4,0.5261
5,1,115,2,1,2,224, man387.jpg, cue_1.jpg,1,5.2616,3,3,1.5525,1,1.2159,1,3,2.2517
5,1,116,3,0,0,51, man085.jpg, ,3,2.8124,1,4,0.5076,7,0,7,7,0
5,1,117,2,2,3,117, man180.jpg, cue_2.jpg,2,1.3245,1,4,1.1085,2,0.7677,1,4,0.2598
5,1,118,3,0,0,136, man212.jpg, ,3,3.7106,1,4,0.2106,7,0,7,7,0
5,1,119,1,3,1,31, man058.jpg, cue_3.jpg,1,3.6604,1,3,0.8216,3,1.8878,1,4,0.5788
5,1,120,3,0,0,40, man068.jpg, ,3,1.1189,1,4,0.2082,7,0,7,7,0
5,1,121,3,0,0,249, man434.jpg, ,3,0.909,1,4,0.1184,7,0,7,7,0
5,1,122,3,0,0,102, man158.jpg, ,3,1.0629,1,4,0.5379,7,0,7,7,0
5,1,123,2,3,1,134, man208.jpg, cue_3.jpg,2,4.1829,1,3,2.6804,3,0.7039,1,4,0.2973
5,1,124,2,1,2,50, man084.jpg, cue_1.jpg,2,1.7625,1,4,0.8563,1,0.5117,1,4,0.3662
5,1,125,2,1,2,76, man120.jpg, cue_1.jpg,1,5.4438,3,3,3.5677,2,1.3432,0,3,0.3842
5,1,126,3,0,0,113, man172.jpg, ,3,1.0936,1,4,0.1831,7,0,7,7,0
5,1,127,3,0,0,247, man431.jpg, ,3,0.7406,1,4,0.1154,7,0,7,7,0
5,1,128,3,0,0,180, man304.jpg, ,3,0.8697,1,4,0.1126,7,0,7,7,0
5,1,129,2,3,1,90, man137.jpg, cue_3.jpg,2,1.1209,1,4,0.9776,3,0.7355,1,4,0.2648
5,1,130,3,0,0,122, man189.jpg, ,3,1.2168,1,4,0.431,7,0,7,7,0
5,1,131,1,1,2,94, man144.jpg, cue_1.jpg,1,12.226,1,3,0.9122,1,0.4481,1,4,0.4871
5,1,132,1,3,1,17, man035.jpg, cue_3.jpg,1,1.896,1,4,0.8241,3,0.4799,1,4,0.2561
5,1,133,3,0,0,125, man193.jpg, ,3,0.939,1,4,0.2109,7,0,7,7,0
5,1,134,2,1,2,147, man245.jpg, cue_1.jpg,1,0.9912,3,4,0.8212,1,0.48,1,4,0.3341
5,1,135,1,2,3,213, man366.jpg, cue_2.jpg,1,1.1547,1,4,0.6923,2,0.416,1,4,0.258
5,1,136,1,2,3,244, man428.jpg, cue_2.jpg,1,1.1355,1,4,0.6554,2,0.5117,1,4,0.3335
5,1,137,3,0,0,10, man024.jpg, ,3,0.7727,1,4,0.1791,7,0,7,7,0
5,1,138,3,0,0,110, man168.jpg, ,3,0.7696,1,4,0.1137,7,0,7,7,0
5,1,139,1,3,1,153, man252.jpg, cue_3.jpg,1,1.0572,1,4,0.5961,3,0.6399,1,4,0.2231
5,1,140,1,2,3,103, man160.jpg, cue_2.jpg,1,2.4095,1,4,2.6776,2,1.6962,1,4,0.2985
5,1,141,3,0,0,191, man328.jpg, ,3,0.9024,1,4,0.144,7,0,7,7,0
5,1,142,1,2,3,256, man447.jpg, cue_2.jpg,1,0.8949,1,4,0.4731,2,3.4238,1,4,0.2287
5,1,143,1,2,3,267, man466.jpg, cue_2.jpg,1,1.5038,1,4,0.5286,2,0.736,1,4,0.2028
5,1,144,3,0,0,196, man337.jpg, ,3,2.4715,1,4,0.1752,7,0,7,7,0
5,1,145,3,0,0,234, man412.jpg, ,3,1.0058,1,4,0.1788,7,0,7,7,0
5,1,146,1,3,1,28, man052.jpg, cue_3.jpg,1,2.6564,1,4,0.8471,3,0.8958,1,4,0.3581
5,1,147,2,3,1,176, man298.jpg, cue_3.jpg,1,2.0611,3,4,0.5982,3,0.8314,1,4,0.2303
5,1,148,1,3,1,81, man125.jpg, cue_3.jpg,1,0.9326,1,4,0.5249,3,1.2159,1,4,0.2908
5,1,149,1,1,2,168, man278.jpg, cue_1.jpg,1,1.0682,1,4,1.0707,1,0.8321,1,4,0.2381
5,1,150,2,3,1,190, man326.jpg, cue_3.jpg,2,1.2577,1,4,0.6924,3,0.7678,1,4,0.2302
5,1,151,2,2,3,221, man382.jpg, cue_2.jpg,2,1.2817,1,4,0.8262,2,0.864,1,4,0.2594
5,1,152,3,0,0,34, man061.jpg, ,3,4.6377,1,4,0.5388,7,0,7,7,0
5,1,153,2,2,3,23, man044.jpg, cue_2.jpg,2,3.7539,1,3,1.2433,1,5.2159,0,3,0.6211
5,1,154,2,1,2,130, man203.jpg, cue_1.jpg,1,3.9413,3,3,1.4267,1,0.7037,1,4,0.6161
5,1,155,3,0,0,215, man372.jpg, ,3,0.9627,1,4,0.2828,7,0,7,7,0
5,1,156,1,2,3,216, man374.jpg, cue_2.jpg,1,1.7645,1,4,0.7622,2,0.5756,1,4,0.2888
5,1,157,3,0,0,46, man077.jpg, ,3,1.3526,1,4,0.209,7,0,7,7,0
5,1,158,1,3,1,21, man041.jpg, cue_3.jpg,2,2.749,2,3,1.3056,1,1.7597,0,3,1.0963
5,1,159,3,0,0,260, man459.jpg, ,3,0.9594,1,4,0.1506,7,0,7,7,0
5,1,160,1,2,3,67, man107.jpg, cue_2.jpg,1,1.6376,1,4,1.9025,2,0.9924,1,4,0.3261
5,1,161,3,0,0,164, man273.jpg, ,3,0.8142,1,4,0.2182,7,0,7,7,0
5,1,162,2,1,2,195, man336.jpg, cue_1.jpg,2,1.2878,1,3,0.8161,2,9.1839,0,2,1.0694
5,1,163,1,2,3,175, man291.jpg, cue_2.jpg,2,3.8778,2,3,1.3308,2,0.9598,1,4,0.5135
5,1,164,3,0,0,57, man093.jpg, ,3,0.865,1,4,0.9866,7,0,7,7,0
5,1,165,3,0,0,61, man099.jpg, ,3,1.5127,1,4,0.2173,7,0,7,7,0
5,1,166,2,2,3,167, man277.jpg, cue_2.jpg,2,2.5334,1,3,1.0509,2,0.5761,1,4,0.2939
5,1,167,3,0,0,124, man191.jpg, ,3,1.694,1,4,0.215,7,0,7,7,0
5,1,168,3,0,0,82, man126.jpg, ,3,0.8352,1,4,0.1405,7,0,7,7,0
5,1,169,3,0,0,243, man427.jpg, ,3,1.5343,1,4,0.3014,7,0,7,7,0
5,1,170,1,3,1,171, man282.jpg, cue_3.jpg,1,2.3421,1,3,0.9473,3,5.2478,1,2,1.2952
5,1,171,1,2,3,182, man310.jpg, cue_2.jpg,1,1.5314,1,4,0.6208,2,0.4798,1,4,0.2699
5,1,172,3,0,0,70, man111.jpg, ,3,0.7758,1,4,0.2147,7,0,7,7,0
5,1,173,1,3,1,118, man184.jpg, cue_3.jpg,1,1.3153,1,3,0.7625,3,1.2479,1,4,0.5187
5,1,174,3,0,0,56, man092.jpg, ,3,0.9023,1,4,0.2075,7,0,7,7,0
5,1,175,3,0,0,181, man309.jpg, ,3,1.1479,1,4,0.1552,7,0,7,7,0
5,1,176,1,3,1,231, man404.jpg, cue_3.jpg,1,2.4745,1,4,0.7864,3,0.5438,1,4,0.3614
5,1,177,1,1,2,173, man287.jpg, cue_1.jpg,1,1.1514,1,4,0.7814,1,0.896,1,4,0.3912
5,1,178,2,3,1,236, man414.jpg, cue_3.jpg,2,1.7722,1,4,1.2653,3,0.7999,1,4,0.3606
5,1,179,1,2,3,12, man027.jpg, cue_2.jpg,2,1.4079,2,3,0.8527,2,4.6397,1,4,0.4613
5,1,180,3,0,0,209, man359.jpg, ,3,0.7032,1,4,0.1449,7,0,7,7,0
5,1,181,3,0,0,155, man255.jpg, ,3,1.2161,1,4,0.0913,7,0,7,7,0
5,1,182,1,3,1,120, man187.jpg, cue_3.jpg,1,1.2608,1,4,1.1135,3,1.2158,1,4,0.9349
5,1,183,2,1,2,92, man139.jpg, cue_1.jpg,2,3.461,1,2,0.8515,1,1.5673,1,4,1.3892
5,1,184,2,2,3,66, man106.jpg, cue_2.jpg,1,1.2855,3,4,1.202,2,0.7033,1,4,0.2566
5,1,185,3,0,0,83, man128.jpg, ,3,1.3235,1,4,0.6591,7,0,7,7,0
5,1,186,1,1,2,264, man463.jpg, cue_1.jpg,1,1.2613,1,4,1.0164,1,7.5515,1,1,1.1197
5,1,187,2,2,3,152, man250.jpg, cue_2.jpg,1,1.99,3,4,1.2341,2,0.5119,1,4,0.8401
5,1,188,2,3,1,32, man059.jpg, cue_3.jpg,2,1.1303,1,4,0.7307,3,1.1517,1,4,0.4912
5,1,189,2,3,1,146, man244.jpg, cue_3.jpg,2,3.084,1,4,1.4986,3,0.6075,1,4,0.3849
5,1,190,2,2,3,15, man032.jpg, cue_2.jpg,2,1.5084,1,4,3.7664,2,1.0877,1,4,0.362
5,1,191,1,1,2,79, man123.jpg, cue_1.jpg,1,3.4241,1,4,1.5837,1,1.8874,1,3,1.5485
5,1,192,2,2,3,246, man430.jpg, cue_2.jpg,2,1.2176,1,4,0.718,2,1.1517,1,4,0.6549
5,1,193,1,1,2,4, man007.jpg, cue_1.jpg,2,3.3049,2,3,1.0698,1,3.7759,1,3,1.0894
5,1,194,1,1,2,78, man122.jpg, cue_1.jpg,1,4.745,1,2,1.3616,2,1.2481,0,2,1.251
5,1,195,2,2,3,27, man050.jpg, cue_2.jpg,2,3.844,1,2,2.2581,1,0.64,0,3,0.6479
5,1,196,1,2,3,2, man004.jpg, cue_2.jpg,1,1.6967,1,4,0.7942,2,0.544,1,4,0.2888
5,1,197,2,1,2,44, man075.jpg, cue_1.jpg,2,4.3943,1,1,1.2656,1,3.9995,1,1,0.7382
5,1,198,1,1,2,133, man207.jpg, cue_1.jpg,1,3.4022,1,4,1.4347,1,0.992,1,4,1.092
5,1,199,2,3,1,148, man246.jpg, cue_3.jpg,2,7.9637,1,4,0.7491,3,0.3843,1,4,0.2688
5,1,200,3,0,0,62, man100.jpg, ,3,2.3429,1,4,0.4049,7,0,7,7,0
5,1,201,1,2,3,202, man350.jpg, cue_2.jpg,1,2.1204,1,4,0.6232,2,0.3836,1,4,0.3237
5,1,202,2,2,3,101, man157.jpg, cue_2.jpg,2,1.1297,1,4,0.8914,2,0.4155,1,4,0.2281
5,1,203,3,0,0,139, man223.jpg, ,3,2.3037,1,4,0.2384,7,0,7,7,0
5,1,204,2,3,1,16, man034.jpg, cue_3.jpg,2,4.6471,1,4,1.1427,3,0.2875,1,4,0.2658
5,1,205,3,0,0,91, man138.jpg, ,3,2.3374,1,4,0.1772,7,0,7,7,0
5,1,206,3,0,0,142, man234.jpg, ,3,1.1828,1,4,0.1403,7,0,7,7,0
5,1,207,2,3,1,75, man118.jpg, cue_3.jpg,2,1.1002,1,4,2.6038,3,0.9279,1,4,0.4241
5,1,208,3,0,0,128, man198.jpg, ,1,1.26,0,1,2.5508,2,4.6392,0,1,1.2564
5,1,209,2,1,2,212, man365.jpg, cue_1.jpg,1,1.961,3,4,1.0468,1,0.5114,1,4,0.2922
5,1,210,1,2,3,116, man179.jpg, cue_2.jpg,1,1.2935,1,4,1.1423,2,0.5755,1,4,0.3022
5,1,211,3,0,0,84, man129.jpg, ,3,0.8707,1,4,0.2417,7,0,7,7,0
5,1,212,3,0,0,219, man378.jpg, ,3,1.3571,1,4,0.21,7,0,7,7,0
5,1,213,3,0,0,158, man259.jpg, ,3,2.6242,1,4,0.2416,7,0,7,7,0
5,1,214,1,3,1,38, man066.jpg, cue_3.jpg,1,1.9333,1,4,0.6988,3,2.0473,1,4,0.3278
5,1,215,2,1,2,48, man079.jpg, cue_1.jpg,1,1.4388,3,4,1.1701,1,0.6716,1,4,0.6103
5,1,216,3,0,0,259, man453.jpg, ,3,0.895,1,4,0.2173,7,0,7,7,0
5,1,217,2,3,1,154, man253.jpg, cue_3.jpg,2,2.1495,1,3,1.307,3,1.3438,1,4,0.6191
5,1,218,1,2,3,227, man392.jpg, cue_2.jpg,1,2.3106,1,4,0.5652,2,0.6079,1,4,0.4165
5,1,219,2,3,1,52, man086.jpg, cue_3.jpg,2,1.0948,1,4,0.7926,3,0.9282,1,4,0.7349
5,1,220,2,2,3,107, man165.jpg, cue_2.jpg,2,1.3175,1,4,0.5227,2,0.5436,1,4,0.2875
5,1,221,1,3,1,253, man443.jpg, cue_3.jpg,1,1.7047,1,3,2.0644,2,0.9601,0,4,0.5585
5,1,222,1,1,2,141, man233.jpg, cue_1.jpg,1,1.2469,1,4,0.6341,1,0.448,1,4,0.5882
5,1,223,1,3,1,235, man413.jpg, cue_3.jpg,1,1.9933,1,4,0.4677,3,0.6078,1,4,0.1668
5,1,224,1,3,1,119, man186.jpg, cue_3.jpg,2,2.3409,2,3,0.8186,3,1.4076,1,4,0.3862
5,1,225,1,2,3,8, man019.jpg, cue_2.jpg,1,2.2171,1,4,0.6668,2,0.7355,1,4,0.224
5,1,226,1,3,1,143, man237.jpg, cue_3.jpg,1,1.4518,1,4,0.6862,3,0.6719,1,4,0.2284
5,1,227,1,1,2,144, man240.jpg, cue_1.jpg,1,0.8638,1,4,0.603,1,0.4799,1,4,0.1732
5,1,228,2,2,3,232, man407.jpg, cue_2.jpg,1,2.3159,3,4,0.5705,2,0.4475,1,4,0.239
5,1,229,3,0,0,3, man005.jpg, ,3,1.5785,1,4,0.2802,7,0,7,7,0
5,1,230,2,2,3,135, man209.jpg, cue_2.jpg,2,2.8785,1,4,1.1445,2,0.6715,1,4,0.2673
5,1,231,3,0,0,269, man468.jpg, ,3,1.3494,1,4,0.2189,7,0,7,7,0
5,1,232,2,2,3,54, man089.jpg, cue_2.jpg,2,1.1287,1,4,0.5696,2,0.3512,1,4,0.1615
5,1,233,2,2,3,131, man205.jpg, cue_2.jpg,2,0.928,1,4,0.5045,2,1.9842,1,4,0.2711
5,1,234,3,0,0,132, man206.jpg, ,3,1.3217,1,4,0.2098,7,0,7,7,0
5,1,235,3,0,0,207, man357.jpg, ,3,0.7827,1,4,0.1089,7,0,7,7,0
5,1,236,2,1,2,197, man338.jpg, cue_1.jpg,2,1.7574,1,4,0.4672,1,4.5437,1,4,0.544
5,1,237,1,1,2,30, man056.jpg, cue_1.jpg,3,4.9571,0,2,1.5816,7,0,7,7,0
5,1,238,2,1,2,71, man112.jpg, cue_1.jpg,2,1.4083,1,3,1.365,1,1.6002,1,4,0.4555
5,1,239,1,3,1,97, man153.jpg, cue_3.jpg,1,1.2235,1,3,1.2385,3,1.6317,1,4,1.3251
5,1,240,3,0,0,241, man423.jpg, ,3,1.195,1,4,0.1831,7,0,7,7,0
5,1,241,1,1,2,170, man281.jpg, cue_1.jpg,1,2.7904,1,4,4.4007,1,0.4156,1,4,0.2297
5,1,242,1,1,2,258, man451.jpg, cue_1.jpg,1,1.2174,1,4,1.6137,1,1.952,1,4,0.8705
5,1,243,3,0,0,257, man450.jpg, ,3,0.8398,1,4,0.2442,7,0,7,7,0
5,1,244,3,0,0,263, man462.jpg, ,3,0.7198,1,4,0.1129,7,0,7,7,0
5,1,245,1,2,3,165, man275.jpg, cue_2.jpg,1,2.0171,1,4,1.8192,2,0.416,1,4,0.2384
5,1,246,2,3,1,177, man299.jpg, cue_3.jpg,1,1.2899,3,2,5.6829,3,1.6318,1,4,0.7992
5,1,247,3,0,0,109, man167.jpg, ,3,0.7707,1,4,0.1463,7,0,7,7,0
5,1,248,2,1,2,13, man029.jpg, cue_1.jpg,2,2.1129,1,3,0.9521,1,1.6959,1,3,1.0955
5,1,249,1,3,1,77, man121.jpg, cue_3.jpg,1,1.5032,1,4,0.6876,3,0.5761,1,4,0.3297
5,1,250,1,1,2,266, man465.jpg, cue_1.jpg,1,1.2467,1,3,0.5072,2,3.4879,0,3,1.5719
5,1,251,2,2,3,33, man060.jpg, cue_2.jpg,1,1.2221,3,3,2.7075,2,4.384,1,3,1.0975
5,1,252,2,3,1,160, man262.jpg, cue_3.jpg,2,1.5366,1,4,1.5516,3,0.8002,1,4,0.4595
5,1,253,1,1,2,156, man257.jpg, cue_1.jpg,1,3.0057,1,3,0.8792,1,0.9595,1,4,0.9432
5,1,254,1,2,3,58, man094.jpg, cue_2.jpg,2,4.9114,2,3,0.8169,2,2.6238,1,2,0.9913
5,1,255,1,3,1,42, man071.jpg, cue_3.jpg,1,1.3555,1,4,2.2582,3,0.3838,1,4,0.2261
5,1,256,1,2,3,126, man196.jpg, cue_2.jpg,1,3.8056,1,2,1.0671,2,4.768,1,3,0.6476
5,1,257,2,2,3,265, man464.jpg, cue_2.jpg,2,1.7281,1,4,0.953,2,0.8318,1,4,0.3015
5,1,258,2,2,3,45, man076.jpg, cue_2.jpg,2,1.126,1,4,0.5024,2,0.4478,1,4,0.268
5,1,259,1,2,3,225, man389.jpg, cue_2.jpg,2,2.0879,2,3,0.816,2,1.4076,1,4,0.2573
5,1,260,1,2,3,26, man048.jpg, cue_2.jpg,1,1.164,1,3,1.5305,2,0.8641,1,4,0.4217
5,1,261,1,1,2,242, man424.jpg, cue_1.jpg,1,4.0091,1,3,1.3927,3,0.8641,0,4,0.289
5,1,262,2,3,1,169, man279.jpg, cue_3.jpg,2,1.4184,1,4,0.6512,3,0.5437,1,4,0.2346
