SN,Btw,Trial,Block,bTrial,cCue,IMidx,IMname,CueName,Resp,RT,Corr
1,1,1,1,1,2,180, man304.jpg, cue_2.jpg,2,1.188040156,1
1,1,2,1,2,3,45, man076.jpg, cue_3.jpg,2,1.009448797,0
1,1,3,1,3,3,248, man433.jpg, cue_3.jpg,3,1.520668904,1
1,1,4,1,4,1,258, man451.jpg, cue_1.jpg,1,1.490677774,1
1,1,5,1,5,2,270, man471.jpg, cue_2.jpg,2,1.458250535,1
1,1,6,1,6,3,150, man248.jpg, cue_3.jpg,3,1.055479153,1
1,1,7,1,7,2,28, man052.jpg, cue_2.jpg,2,1.001517995,1
1,1,8,1,8,2,223, man386.jpg, cue_2.jpg,2,0.737512587,1
1,1,9,1,9,1,254, man445.JPG, cue_1.jpg,1,0.838318644,1
1,1,10,1,10,3,125, man193.jpg, cue_3.jpg,3,0.846681174,1
1,1,11,1,11,3,32, man059.jpg, cue_3.jpg,3,1.007632141,1
1,1,12,1,12,2,130, man203.jpg, cue_2.jpg,2,0.9649959,1
1,1,13,1,13,2,21, man041.jpg, cue_2.jpg,2,1.200973342,1
1,1,14,1,14,2,2, man004.jpg, cue_2.jpg,2,0.647917998,1
1,1,15,1,15,2,123, man190.jpg, cue_2.jpg,2,0.360915433,1
1,1,16,1,16,2,181, man309.jpg, cue_2.jpg,2,1.018221527,1
1,1,17,1,17,2,187, man315.jpg, cue_2.jpg,2,0.667067629,1
1,1,18,1,18,2,239, man421.jpg, cue_2.jpg,1,0.734406435,0
1,1,19,1,19,3,39, man067.jpg, cue_3.jpg,3,1.488292842,1
1,1,20,1,20,3,213, man366.jpg, cue_3.jpg,3,1.135509831,1
1,1,21,1,21,1,126, man196.jpg, cue_1.jpg,2,1.080795779,0
1,1,22,1,22,1,138, man222.jpg, cue_1.jpg,2,1.572159048,0
1,1,23,1,23,3,219, man378.jpg, cue_3.jpg,3,1.206004685,1
1,1,24,1,24,2,133, man207.jpg, cue_2.jpg,2,1.44487063,1
1,1,25,1,25,2,120, man187.jpg, cue_2.jpg,2,0.785333535,1
1,1,26,1,26,2,169, man279.jpg, cue_2.jpg,2,1.575558156,1
1,1,27,1,27,2,95, man145.jpg, cue_2.jpg,2,0.590896777,1
1,1,28,1,28,1,97, man153.jpg, cue_1.jpg,1,0.7338528,1
1,1,29,1,29,3,135, man209.jpg, cue_3.jpg,3,0.565942439,1
1,1,30,1,30,1,112, man171.jpg, cue_1.jpg,3,1.589927208,0
1,1,31,1,31,2,183, man311.jpg, cue_2.jpg,2,0.895855464,1
1,1,32,1,32,3,63, man101.jpg, cue_3.jpg,3,0.866386905,1
1,1,33,1,33,1,75, man118.jpg, cue_1.jpg,1,0.811948017,1
1,1,34,1,34,1,85, man130.jpg, cue_1.jpg,1,0.572493371,1
1,1,35,1,35,1,146, man244.jpg, cue_1.jpg,1,0.605801956,1
1,1,36,1,36,3,246, man430.jpg, cue_3.jpg,3,1.206420894,1
1,1,37,1,37,1,195, man336.jpg, cue_1.jpg,1,0.64787841,1
1,1,38,1,38,2,128, man198.jpg, cue_2.jpg,2,0.443797773,1
1,1,39,1,39,3,198, man339.jpg, cue_3.jpg,3,1.209332139,1
1,1,40,1,40,1,14, man031.jpg, cue_1.jpg,1,0.965695103,1
1,1,41,1,41,3,235, man413.jpg, cue_3.jpg,3,0.607075387,1
1,1,42,1,42,1,224, man387.jpg, cue_1.jpg,1,1.039879835,1
1,1,43,1,43,3,151, man249.jpg, cue_3.jpg,3,0.670131497,1
1,1,44,1,44,3,69, man110.jpg, cue_3.jpg,3,0.680286028,1
1,1,45,1,45,2,264, man463.jpg, cue_2.jpg,1,0.903631272,0
1,1,46,1,46,2,121, man188.jpg, cue_2.jpg,3,0.729129056,0
1,1,47,1,47,1,139, man223.jpg, cue_1.jpg,2,1.083522525,0
1,1,48,1,48,3,201, man348.jpg, cue_3.jpg,3,1.082982969,1
1,1,49,1,49,1,16, man034.jpg, cue_1.jpg,1,0.925206202,1
1,1,50,1,50,3,99, man155.jpg, cue_3.jpg,3,0.669930339,1
1,1,51,1,51,1,236, man414.jpg, cue_1.jpg,3,1.598337701,0
1,1,52,1,52,2,206, man355.jpg, cue_2.jpg,2,0.781721155,1
1,1,53,1,53,2,47, man078.jpg, cue_2.jpg,2,0.882372665,1
1,1,54,1,54,3,226, man390.jpg, cue_3.jpg,3,1.148075312,1
1,1,55,1,55,2,202, man350.jpg, cue_2.jpg,2,0.627649256,1
1,1,56,1,56,2,42, man071.jpg, cue_2.jpg,1,0.682516347,0
1,1,57,1,57,1,3, man005.jpg, cue_1.jpg,1,0.442766184,1
1,1,58,1,58,3,18, man036.jpg, cue_3.jpg,3,0.863066066,1
1,1,59,1,59,1,168, man278.jpg, cue_1.jpg,1,0.705814901,1
1,1,60,1,60,2,1, man002.jpg, cue_2.jpg,3,0.667625378,0
1,1,61,1,61,2,178, man301.jpg, cue_2.jpg,1,0.654708606,0
1,1,62,1,62,1,199, man341.jpg, cue_1.jpg,1,1.506773781,1
1,1,63,1,63,3,89, man136.jpg, cue_3.jpg,3,0.67651418,1
1,1,64,1,64,3,268, man467.jpg, cue_3.jpg,2,0.590781248,0
1,1,65,1,65,3,265, man464.jpg, cue_3.jpg,3,0.620469892,1
1,1,66,1,66,3,55, man091.jpg, cue_3.jpg,1,1.188039475,0
1,1,67,1,67,1,9, man022.jpg, cue_1.jpg,1,0.711680937,1
1,1,68,1,68,3,229, man401.jpg, cue_3.jpg,3,1.359341616,1
1,1,69,1,69,3,115, man177.jpg, cue_3.jpg,3,1.554176949,1
1,1,70,1,70,3,177, man299.jpg, cue_3.jpg,2,0.874495985,0
1,1,71,1,71,1,11, man025.jpg, cue_1.jpg,1,1.401075717,1
1,1,72,1,72,3,90, man137.jpg, cue_3.jpg,3,1.034382616,1
1,1,73,1,73,2,189, man322.jpg, cue_2.jpg,1,1.878701845,0
1,1,74,1,74,1,141, man233.jpg, cue_1.jpg,1,1.022138666,1
1,1,75,1,75,1,94, man144.jpg, cue_1.jpg,1,0.694133267,1
1,1,76,1,76,1,70, man111.jpg, cue_1.jpg,3,0.981846141,0
1,1,77,1,77,2,252, man439.jpg, cue_2.jpg,2,1.854796602,1
1,1,78,1,78,1,220, man380.jpg, cue_1.jpg,2,0.98613433,0
1,1,79,1,79,3,108, man166.jpg, cue_3.jpg,3,0.78424324,1
1,1,80,1,80,1,157, man258.jpg, cue_1.jpg,1,0.851096194,1
1,1,81,1,81,3,153, man252.jpg, cue_3.jpg,3,0.489841246,1
1,1,82,1,82,1,166, man276.jpg, cue_1.jpg,1,0.494390149,1
1,1,83,1,83,1,77, man121.jpg, cue_1.jpg,1,0.986877535,1
1,1,84,1,84,1,210, man360.jpg, cue_1.jpg,1,0.652969199,1
1,1,85,1,85,2,247, man431.jpg, cue_2.jpg,1,0.97543824,0
1,1,86,1,86,3,221, man382.jpg, cue_3.jpg,3,0.851853856,1
1,1,87,1,87,2,24, man045.jpg, cue_2.jpg,3,0.788631539,0
1,1,88,1,88,1,101, man157.jpg, cue_1.jpg,1,0.781499587,1
1,1,89,1,89,2,103, man160.jpg, cue_2.jpg,1,1.209663221,0
1,1,90,1,90,1,232, man407.jpg, cue_1.jpg,1,0.698696385,1
1,1,91,2,1,2,121, man188.jpg, cue_2.jpg,2,1.354687683,1
1,1,92,2,2,1,254, man445.JPG, cue_1.jpg,1,0.547277314,1
1,1,93,2,3,2,206, man355.jpg, cue_2.jpg,2,0.413114118,1
1,1,94,2,4,3,45, man076.jpg, cue_3.jpg,3,0.692640729,1
1,1,95,2,5,3,90, man137.jpg, cue_3.jpg,3,0.995370054,1
1,1,96,2,6,3,177, man299.jpg, cue_3.jpg,3,0.51453405,1
1,1,97,2,7,2,270, man471.jpg, cue_2.jpg,2,0.454906944,1
1,1,98,2,8,3,63, man101.jpg, cue_3.jpg,3,0.597535527,1
1,1,99,2,9,1,157, man258.jpg, cue_1.jpg,1,0.369187843,1
1,1,100,2,10,3,248, man433.jpg, cue_3.jpg,3,0.463166356,1
1,1,101,2,11,2,24, man045.jpg, cue_2.jpg,3,0.594763523,0
1,1,102,2,12,1,101, man157.jpg, cue_1.jpg,2,1.01913399,0
1,1,103,2,13,1,85, man130.jpg, cue_1.jpg,1,1.04732083,1
1,1,104,2,14,1,168, man278.jpg, cue_1.jpg,1,0.432426271,1
1,1,105,2,15,3,99, man155.jpg, cue_3.jpg,3,0.550116901,1
1,1,106,2,16,3,125, man193.jpg, cue_3.jpg,3,0.825123397,1
1,1,107,2,17,1,141, man233.jpg, cue_1.jpg,1,0.670611473,1
1,1,108,2,18,2,239, man421.jpg, cue_2.jpg,2,0.778285669,1
1,1,109,2,19,2,103, man160.jpg, cue_2.jpg,2,0.740619715,1
1,1,110,2,20,2,120, man187.jpg, cue_2.jpg,1,1.433907371,0
1,1,111,2,21,2,183, man311.jpg, cue_2.jpg,2,0.689732767,1
1,1,112,2,22,1,220, man380.jpg, cue_1.jpg,1,1.486652416,1
1,1,113,2,23,3,150, man248.jpg, cue_3.jpg,3,0.87531118,1
1,1,114,2,24,3,153, man252.jpg, cue_3.jpg,3,1.293680209,1
1,1,115,2,25,3,235, man413.jpg, cue_3.jpg,3,0.810206345,1
1,1,116,2,26,1,70, man111.jpg, cue_1.jpg,1,0.576618248,1
1,1,117,2,27,1,224, man387.jpg, cue_1.jpg,1,0.623363419,1
1,1,118,2,28,1,166, man276.jpg, cue_1.jpg,1,0.594434675,1
1,1,119,2,29,1,139, man223.jpg, cue_1.jpg,1,0.838480538,1
1,1,120,2,30,2,180, man304.jpg, cue_2.jpg,2,0.702750223,1
1,1,121,2,31,1,94, man144.jpg, cue_1.jpg,3,1.692718724,0
1,1,122,2,32,2,181, man309.jpg, cue_2.jpg,2,1.032745226,1
1,1,123,2,33,1,3, man005.jpg, cue_1.jpg,1,0.554943768,1
1,1,124,2,34,3,135, man209.jpg, cue_3.jpg,3,0.551447069,1
1,1,125,2,35,1,16, man034.jpg, cue_1.jpg,1,0.629084733,1
1,1,126,2,36,2,1, man002.jpg, cue_2.jpg,2,0.395142873,1
1,1,127,2,37,1,232, man407.jpg, cue_1.jpg,1,0.491033585,1
1,1,128,2,38,2,28, man052.jpg, cue_2.jpg,2,0.729981878,1
1,1,129,2,39,2,169, man279.jpg, cue_2.jpg,2,0.573684969,1
1,1,130,2,40,1,258, man451.jpg, cue_1.jpg,1,1.00512642,1
1,1,131,2,41,2,264, man463.jpg, cue_2.jpg,2,0.50967171,1
1,1,132,2,42,1,112, man171.jpg, cue_1.jpg,1,0.550324183,1
1,1,133,2,43,2,187, man315.jpg, cue_2.jpg,2,0.612977882,1
1,1,134,2,44,3,265, man464.jpg, cue_3.jpg,3,1.023206399,1
1,1,135,2,45,1,9, man022.jpg, cue_1.jpg,1,0.846649242,1
1,1,136,2,46,3,213, man366.jpg, cue_3.jpg,3,0.824119265,1
1,1,137,2,47,1,126, man196.jpg, cue_1.jpg,1,0.652185044,1
1,1,138,2,48,2,247, man431.jpg, cue_2.jpg,2,0.674084197,1
1,1,139,2,49,1,77, man121.jpg, cue_1.jpg,1,1.087524695,1
1,1,140,2,50,3,226, man390.jpg, cue_3.jpg,2,1.408036827,0
1,1,141,2,51,3,229, man401.jpg, cue_3.jpg,3,1.007651138,1
1,1,142,2,52,2,130, man203.jpg, cue_2.jpg,2,0.652627154,1
1,1,143,2,53,3,39, man067.jpg, cue_3.jpg,3,0.645733162,1
1,1,144,2,54,1,97, man153.jpg, cue_1.jpg,1,0.629196714,1
1,1,145,2,55,2,202, man350.jpg, cue_2.jpg,2,0.283201797,1
1,1,146,2,56,1,146, man244.jpg, cue_1.jpg,1,0.487295172,1
1,1,147,2,57,2,223, man386.jpg, cue_2.jpg,2,0.586238737,1
1,1,148,2,58,2,178, man301.jpg, cue_2.jpg,2,0.553568338,1
1,1,149,2,59,2,252, man439.jpg, cue_2.jpg,2,0.402993798,1
1,1,150,2,60,3,268, man467.jpg, cue_3.jpg,3,0.477380879,1
1,1,151,2,61,3,198, man339.jpg, cue_3.jpg,3,0.620832471,1
1,1,152,2,62,3,55, man091.jpg, cue_3.jpg,3,0.375340923,1
1,1,153,2,63,3,32, man059.jpg, cue_3.jpg,3,0.567106465,1
1,1,154,2,64,1,210, man360.jpg, cue_1.jpg,1,0.606466614,1
1,1,155,2,65,3,108, man166.jpg, cue_3.jpg,3,0.525935241,1
1,1,156,2,66,3,221, man382.jpg, cue_3.jpg,3,0.436922734,1
1,1,157,2,67,2,133, man207.jpg, cue_2.jpg,2,0.957645815,1
1,1,158,2,68,1,11, man025.jpg, cue_1.jpg,1,0.642288109,1
1,1,159,2,69,1,138, man222.jpg, cue_1.jpg,1,0.751272485,1
1,1,160,2,70,3,18, man036.jpg, cue_3.jpg,3,0.711589064,1
1,1,161,2,71,2,189, man322.jpg, cue_2.jpg,1,1.255876685,0
1,1,162,2,72,3,69, man110.jpg, cue_3.jpg,7,0,0
1,1,163,2,73,2,21, man041.jpg, cue_2.jpg,2,0.79672583,1
1,1,164,2,74,3,219, man378.jpg, cue_3.jpg,3,0.607821207,1
1,1,165,2,75,3,201, man348.jpg, cue_3.jpg,3,1.009376246,1
1,1,166,2,76,3,151, man249.jpg, cue_3.jpg,3,0.415929083,1
1,1,167,2,77,2,95, man145.jpg, cue_2.jpg,2,0.703021901,1
1,1,168,2,78,3,115, man177.jpg, cue_3.jpg,3,0.692308866,1
1,1,169,2,79,2,128, man198.jpg, cue_2.jpg,2,1.061022088,1
1,1,170,2,80,1,236, man414.jpg, cue_1.jpg,1,0.990666521,1
1,1,171,2,81,2,123, man190.jpg, cue_2.jpg,2,0.674239611,1
1,1,172,2,82,3,89, man136.jpg, cue_3.jpg,3,0.645658016,1
1,1,173,2,83,2,47, man078.jpg, cue_2.jpg,2,0.596464093,1
1,1,174,2,84,2,42, man071.jpg, cue_2.jpg,2,0.658234076,1
1,1,175,2,85,2,2, man004.jpg, cue_2.jpg,2,0.378869144,1
1,1,176,2,86,1,75, man118.jpg, cue_1.jpg,1,0.670001791,1
1,1,177,2,87,1,14, man031.jpg, cue_1.jpg,1,0.531624258,1
1,1,178,2,88,1,195, man336.jpg, cue_1.jpg,1,1.492201737,1
1,1,179,2,89,1,199, man341.jpg, cue_1.jpg,1,0.733611131,1
1,1,180,2,90,3,246, man430.jpg, cue_3.jpg,3,0.396906829,1
1,1,181,3,1,1,14, man031.jpg, cue_1.jpg,1,0.592636231,1
1,1,182,3,2,3,108, man166.jpg, cue_3.jpg,3,0.401983096,1
1,1,183,3,3,3,90, man137.jpg, cue_3.jpg,3,0.656541679,1
1,1,184,3,4,1,232, man407.jpg, cue_1.jpg,1,0.607688976,1
1,1,185,3,5,1,254, man445.JPG, cue_1.jpg,1,0.391114487,1
1,1,186,3,6,2,2, man004.jpg, cue_2.jpg,2,0.353516509,1
1,1,187,3,7,3,39, man067.jpg, cue_3.jpg,3,0.82170917,1
1,1,188,3,8,2,128, man198.jpg, cue_2.jpg,1,0.425845152,0
1,1,189,3,9,2,95, man145.jpg, cue_2.jpg,2,0.581694051,1
1,1,190,3,10,3,235, man413.jpg, cue_3.jpg,3,0.42240481,1
1,1,191,3,11,2,47, man078.jpg, cue_2.jpg,2,0.430465727,1
1,1,192,3,12,2,123, man190.jpg, cue_2.jpg,2,0.860408433,1
1,1,193,3,13,3,32, man059.jpg, cue_3.jpg,3,0.429235788,1
1,1,194,3,14,3,115, man177.jpg, cue_3.jpg,3,0.639012858,1
1,1,195,3,15,1,85, man130.jpg, cue_1.jpg,1,0.479824912,1
1,1,196,3,16,2,103, man160.jpg, cue_2.jpg,2,0.404433107,1
1,1,197,3,17,2,223, man386.jpg, cue_2.jpg,2,0.691066715,1
1,1,198,3,18,2,178, man301.jpg, cue_2.jpg,2,0.69245598,1
1,1,199,3,19,1,16, man034.jpg, cue_1.jpg,1,0.672014183,1
1,1,200,3,20,3,89, man136.jpg, cue_3.jpg,3,0.471352715,1
1,1,201,3,21,2,133, man207.jpg, cue_2.jpg,2,0.979010721,1
1,1,202,3,22,1,258, man451.jpg, cue_1.jpg,1,0.70432182,1
1,1,203,3,23,1,126, man196.jpg, cue_1.jpg,1,1.018227029,1
1,1,204,3,24,1,210, man360.jpg, cue_1.jpg,1,0.498575509,1
1,1,205,3,25,2,264, man463.jpg, cue_2.jpg,2,0.456105431,1
1,1,206,3,26,2,24, man045.jpg, cue_2.jpg,2,0.555435619,1
1,1,207,3,27,1,224, man387.jpg, cue_1.jpg,1,0.422695077,1
1,1,208,3,28,1,199, man341.jpg, cue_1.jpg,1,0.537229888,1
1,1,209,3,29,2,1, man002.jpg, cue_2.jpg,2,0.306394524,1
1,1,210,3,30,3,229, man401.jpg, cue_3.jpg,3,0.529759987,1
1,1,211,3,31,3,135, man209.jpg, cue_3.jpg,3,0.539252394,1
1,1,212,3,32,2,206, man355.jpg, cue_2.jpg,2,0.279956757,1
1,1,213,3,33,3,99, man155.jpg, cue_3.jpg,3,0.43487723,1
1,1,214,3,34,3,248, man433.jpg, cue_3.jpg,3,0.350158808,1
1,1,215,3,35,2,181, man309.jpg, cue_2.jpg,2,0.321086919,1
1,1,216,3,36,3,219, man378.jpg, cue_3.jpg,3,0.58374551,1
1,1,217,3,37,3,213, man366.jpg, cue_3.jpg,3,0.358233724,1
1,1,218,3,38,2,183, man311.jpg, cue_2.jpg,2,0.496653064,1
1,1,219,3,39,1,11, man025.jpg, cue_1.jpg,1,0.611603874,1
1,1,220,3,40,3,63, man101.jpg, cue_3.jpg,3,0.688716672,1
1,1,221,3,41,2,187, man315.jpg, cue_2.jpg,2,0.595996,1
1,1,222,3,42,3,55, man091.jpg, cue_3.jpg,3,0.592068127,1
1,1,223,3,43,2,270, man471.jpg, cue_2.jpg,2,0.574501434,1
1,1,224,3,44,2,121, man188.jpg, cue_2.jpg,2,0.668817326,1
1,1,225,3,45,3,198, man339.jpg, cue_3.jpg,3,0.425293318,1
1,1,226,3,46,1,9, man022.jpg, cue_1.jpg,1,0.542568404,1
1,1,227,3,47,2,189, man322.jpg, cue_2.jpg,2,0.493221365,1
1,1,228,3,48,3,45, man076.jpg, cue_3.jpg,3,0.892237626,1
1,1,229,3,49,3,125, man193.jpg, cue_3.jpg,3,0.498947579,1
1,1,230,3,50,1,141, man233.jpg, cue_1.jpg,1,0.673086161,1
1,1,231,3,51,3,221, man382.jpg, cue_3.jpg,3,0.361911657,1
1,1,232,3,52,2,21, man041.jpg, cue_2.jpg,2,0.526015487,1
1,1,233,3,53,3,151, man249.jpg, cue_3.jpg,3,0.502092543,1
1,1,234,3,54,2,247, man431.jpg, cue_2.jpg,2,0.48754724,1
1,1,235,3,55,1,70, man111.jpg, cue_1.jpg,1,0.432891758,1
1,1,236,3,56,3,246, man430.jpg, cue_3.jpg,3,0.606104258,1
1,1,237,3,57,1,157, man258.jpg, cue_1.jpg,1,0.332503208,1
1,1,238,3,58,1,139, man223.jpg, cue_1.jpg,1,1.364145747,1
1,1,239,3,59,3,268, man467.jpg, cue_3.jpg,3,0.359807743,1
1,1,240,3,60,1,138, man222.jpg, cue_1.jpg,1,0.695892768,1
1,1,241,3,61,3,265, man464.jpg, cue_3.jpg,3,0.369333497,1
1,1,242,3,62,3,201, man348.jpg, cue_3.jpg,3,0.280300645,1
1,1,243,3,63,2,120, man187.jpg, cue_2.jpg,2,0.672259728,1
1,1,244,3,64,2,130, man203.jpg, cue_2.jpg,2,0.575078008,1
1,1,245,3,65,1,166, man276.jpg, cue_1.jpg,1,0.305799234,1
1,1,246,3,66,3,18, man036.jpg, cue_3.jpg,3,0.491439687,1
1,1,247,3,67,3,226, man390.jpg, cue_3.jpg,3,0.685596599,1
1,1,248,3,68,3,177, man299.jpg, cue_3.jpg,3,1.045622567,1
1,1,249,3,69,1,112, man171.jpg, cue_1.jpg,1,0.810743694,1
1,1,250,3,70,2,28, man052.jpg, cue_2.jpg,2,0.56791049,1
1,1,251,3,71,3,69, man110.jpg, cue_3.jpg,3,0.476082423,1
1,1,252,3,72,1,77, man121.jpg, cue_1.jpg,1,0.390149534,1
1,1,253,3,73,2,202, man350.jpg, cue_2.jpg,2,0.243574353,1
1,1,254,3,74,1,236, man414.jpg, cue_1.jpg,1,0.810432568,1
1,1,255,3,75,1,3, man005.jpg, cue_1.jpg,1,0.381630252,1
1,1,256,3,76,1,220, man380.jpg, cue_1.jpg,2,0.706247032,0
1,1,257,3,77,2,239, man421.jpg, cue_2.jpg,2,0.539277856,1
1,1,258,3,78,2,169, man279.jpg, cue_2.jpg,2,1.163013853,1
1,1,259,3,79,1,94, man144.jpg, cue_1.jpg,3,0.871880936,0
1,1,260,3,80,3,150, man248.jpg, cue_3.jpg,3,0.639591485,1
1,1,261,3,81,2,180, man304.jpg, cue_2.jpg,2,0.366416856,1
1,1,262,3,82,2,42, man071.jpg, cue_2.jpg,2,0.862437378,1
1,1,263,3,83,3,153, man252.jpg, cue_3.jpg,1,1.228774081,0
1,1,264,3,84,1,75, man118.jpg, cue_1.jpg,1,1.286724249,1
1,1,265,3,85,1,101, man157.jpg, cue_1.jpg,1,0.944818057,1
1,1,266,3,86,2,252, man439.jpg, cue_2.jpg,2,0.477304922,1
1,1,267,3,87,1,146, man244.jpg, cue_1.jpg,1,0.541295408,1
1,1,268,3,88,1,97, man153.jpg, cue_1.jpg,1,0.347370633,1
1,1,269,3,89,1,168, man278.jpg, cue_1.jpg,1,0.318394963,1
1,1,270,3,90,1,195, man336.jpg, cue_1.jpg,2,1.083182472,0
1,1,271,4,1,2,202, man350.jpg, cue_2.jpg,2,0.377321228,1
1,1,272,4,2,2,28, man052.jpg, cue_2.jpg,2,0.611407044,1
1,1,273,4,3,2,239, man421.jpg, cue_2.jpg,2,0.361527023,1
1,1,274,4,4,3,229, man401.jpg, cue_3.jpg,3,0.557666735,1
1,1,275,4,5,3,135, man209.jpg, cue_3.jpg,3,0.791946033,1
1,1,276,4,6,2,2, man004.jpg, cue_2.jpg,2,0.43129266,1
1,1,277,4,7,2,21, man041.jpg, cue_2.jpg,2,0.692515414,1
1,1,278,4,8,3,89, man136.jpg, cue_3.jpg,3,0.358859759,1
1,1,279,4,9,2,95, man145.jpg, cue_2.jpg,2,0.476470794,1
1,1,280,4,10,2,223, man386.jpg, cue_2.jpg,2,0.642985425,1
1,1,281,4,11,1,168, man278.jpg, cue_1.jpg,1,0.5292032,1
1,1,282,4,12,1,210, man360.jpg, cue_1.jpg,1,0.464927663,1
1,1,283,4,13,1,75, man118.jpg, cue_1.jpg,1,0.507485317,1
1,1,284,4,14,1,94, man144.jpg, cue_1.jpg,1,1.022307541,1
1,1,285,4,15,1,138, man222.jpg, cue_1.jpg,1,1.125972837,1
1,1,286,4,16,1,9, man022.jpg, cue_1.jpg,1,0.477974666,1
1,1,287,4,17,1,166, man276.jpg, cue_1.jpg,1,0.296266752,1
1,1,288,4,18,3,69, man110.jpg, cue_3.jpg,3,0.55192641,1
1,1,289,4,19,1,199, man341.jpg, cue_1.jpg,1,0.560559971,1
1,1,290,4,20,1,14, man031.jpg, cue_1.jpg,1,0.395602338,1
1,1,291,4,21,2,128, man198.jpg, cue_2.jpg,2,0.955725379,1
1,1,292,4,22,1,16, man034.jpg, cue_1.jpg,1,0.352036627,1
1,1,293,4,23,2,121, man188.jpg, cue_2.jpg,2,0.38522403,1
1,1,294,4,24,1,232, man407.jpg, cue_1.jpg,1,0.356867132,1
1,1,295,4,25,1,224, man387.jpg, cue_1.jpg,1,0.757470924,1
1,1,296,4,26,2,1, man002.jpg, cue_2.jpg,2,0.437049536,1
1,1,297,4,27,2,42, man071.jpg, cue_2.jpg,2,0.397501615,1
1,1,298,4,28,3,150, man248.jpg, cue_3.jpg,3,0.596739619,1
1,1,299,4,29,3,226, man390.jpg, cue_3.jpg,3,0.956946946,1
1,1,300,4,30,3,45, man076.jpg, cue_3.jpg,3,1.18057987,1
1,1,301,4,31,2,123, man190.jpg, cue_2.jpg,2,0.433610789,1
1,1,302,4,32,2,189, man322.jpg, cue_2.jpg,2,0.335022274,1
1,1,303,4,33,2,130, man203.jpg, cue_2.jpg,2,0.880137013,1
1,1,304,4,34,2,24, man045.jpg, cue_2.jpg,2,0.645730029,1
1,1,305,4,35,3,108, man166.jpg, cue_3.jpg,3,0.476208819,1
1,1,306,4,36,3,221, man382.jpg, cue_3.jpg,3,0.278559378,1
1,1,307,4,37,2,180, man304.jpg, cue_2.jpg,2,0.438668261,1
1,1,308,4,38,3,235, man413.jpg, cue_3.jpg,3,0.512269278,1
1,1,309,4,39,1,146, man244.jpg, cue_1.jpg,1,0.376394602,1
1,1,310,4,40,3,151, man249.jpg, cue_3.jpg,3,0.219399156,1
1,1,311,4,41,2,247, man431.jpg, cue_2.jpg,2,0.429717132,1
1,1,312,4,42,2,183, man311.jpg, cue_2.jpg,2,0.39096975,1
1,1,313,4,43,3,248, man433.jpg, cue_3.jpg,3,0.514431909,1
1,1,314,4,44,2,252, man439.jpg, cue_2.jpg,2,0.308002539,1
1,1,315,4,45,3,32, man059.jpg, cue_3.jpg,3,0.918891101,1
1,1,316,4,46,3,201, man348.jpg, cue_3.jpg,3,0.390789077,1
1,1,317,4,47,1,85, man130.jpg, cue_1.jpg,1,0.492014006,1
1,1,318,4,48,1,141, man233.jpg, cue_1.jpg,1,0.764903168,1
1,1,319,4,49,3,90, man137.jpg, cue_3.jpg,3,0.417476651,1
1,1,320,4,50,3,99, man155.jpg, cue_3.jpg,3,0.374034418,1
1,1,321,4,51,2,103, man160.jpg, cue_2.jpg,2,0.547334894,1
1,1,322,4,52,3,219, man378.jpg, cue_3.jpg,3,0.430586751,1
1,1,323,4,53,1,258, man451.jpg, cue_1.jpg,1,1.646680686,1
1,1,324,4,54,1,157, man258.jpg, cue_1.jpg,1,0.315180586,1
1,1,325,4,55,3,213, man366.jpg, cue_3.jpg,3,0.401079197,1
1,1,326,4,56,1,70, man111.jpg, cue_1.jpg,1,0.464884828,1
1,1,327,4,57,1,236, man414.jpg, cue_1.jpg,1,0.483870691,1
1,1,328,4,58,3,268, man467.jpg, cue_3.jpg,3,0.405702682,1
1,1,329,4,59,3,246, man430.jpg, cue_3.jpg,3,0.456983131,1
1,1,330,4,60,3,153, man252.jpg, cue_3.jpg,3,1.218419549,1
1,1,331,4,61,1,195, man336.jpg, cue_1.jpg,1,0.904477378,1
1,1,332,4,62,1,11, man025.jpg, cue_1.jpg,1,0.461760383,1
1,1,333,4,63,1,220, man380.jpg, cue_1.jpg,1,1.474508017,1
1,1,334,4,64,1,3, man005.jpg, cue_1.jpg,1,0.639133938,1
1,1,335,4,65,1,126, man196.jpg, cue_1.jpg,1,0.500356635,1
1,1,336,4,66,3,39, man067.jpg, cue_3.jpg,3,0.633268341,1
1,1,337,4,67,3,177, man299.jpg, cue_3.jpg,3,0.592096303,1
1,1,338,4,68,3,63, man101.jpg, cue_3.jpg,3,0.431203072,1
1,1,339,4,69,2,47, man078.jpg, cue_2.jpg,2,0.440537223,1
1,1,340,4,70,2,187, man315.jpg, cue_2.jpg,2,0.699850746,1
1,1,341,4,71,3,18, man036.jpg, cue_3.jpg,3,0.466377606,1
1,1,342,4,72,3,125, man193.jpg, cue_3.jpg,3,0.472906407,1
1,1,343,4,73,1,97, man153.jpg, cue_1.jpg,1,0.323615572,1
1,1,344,4,74,3,265, man464.jpg, cue_3.jpg,3,0.496838481,1
1,1,345,4,75,1,77, man121.jpg, cue_1.jpg,1,0.442729003,1
1,1,346,4,76,2,169, man279.jpg, cue_2.jpg,2,0.828353855,1
1,1,347,4,77,1,254, man445.JPG, cue_1.jpg,1,0.407483789,1
1,1,348,4,78,2,181, man309.jpg, cue_2.jpg,2,0.420619934,1
1,1,349,4,79,2,178, man301.jpg, cue_2.jpg,2,0.399734016,1
1,1,350,4,80,3,115, man177.jpg, cue_3.jpg,3,0.528661753,1
1,1,351,4,81,1,139, man223.jpg, cue_1.jpg,1,0.577968146,1
1,1,352,4,82,3,55, man091.jpg, cue_3.jpg,3,0.331151505,1
1,1,353,4,83,2,120, man187.jpg, cue_2.jpg,2,0.825556995,1
1,1,354,4,84,3,198, man339.jpg, cue_3.jpg,3,0.49403741,1
1,1,355,4,85,2,270, man471.jpg, cue_2.jpg,2,0.424816637,1
1,1,356,4,86,2,206, man355.jpg, cue_2.jpg,2,0.37309499,1
1,1,357,4,87,1,101, man157.jpg, cue_1.jpg,1,0.594614252,1
1,1,358,4,88,2,133, man207.jpg, cue_2.jpg,2,0.445727473,1
1,1,359,4,89,2,264, man463.jpg, cue_2.jpg,2,0.362636908,1
1,1,360,4,90,1,112, man171.jpg, cue_1.jpg,1,0.515151852,1
2,2,1,1,1,2,109, man167.jpg, cue_2.jpg,3,0.591193981,0
2,2,2,1,2,1,59, man095.jpg, cue_1.jpg,1,0.795105146,1
2,2,3,1,3,2,239, man421.jpg, cue_2.jpg,2,0.822174539,1
2,2,4,1,4,1,60, man096.jpg, cue_1.jpg,3,0.679106498,0
2,2,5,1,5,2,122, man189.jpg, cue_2.jpg,3,0.884856601,0
2,2,6,1,6,3,105, man162.jpg, cue_3.jpg,3,0.696168257,1
2,2,7,1,7,2,183, man311.jpg, cue_2.jpg,1,0.738378989,0
2,2,8,1,8,2,5, man010.jpg, cue_2.jpg,2,0.567610705,1
2,2,9,1,9,1,20, man040.jpg, cue_1.jpg,1,0.406560173,1
2,2,10,1,10,2,111, man169.jpg, cue_2.jpg,2,0.765260548,1
2,2,11,1,11,3,255, man446.jpg, cue_3.jpg,1,0.657366444,0
2,2,12,1,12,1,175, man291.jpg, cue_1.jpg,1,0.422787243,1
2,2,13,1,13,2,17, man035.jpg, cue_2.jpg,1,0.806834594,0
2,2,14,1,14,1,64, man102.jpg, cue_1.jpg,2,0.32887148,0
2,2,15,1,15,2,209, man359.jpg, cue_2.jpg,2,0.649192921,1
2,2,16,1,16,2,210, man360.jpg, cue_2.jpg,3,1.323551364,0
2,2,17,1,17,3,171, man282.jpg, cue_3.jpg,3,0.323885329,1
2,2,18,1,18,3,113, man172.jpg, cue_3.jpg,3,0.526796128,1
2,2,19,1,19,3,88, man135.jpg, cue_3.jpg,2,0.211428011,0
2,2,20,1,20,3,52, man086.jpg, cue_3.jpg,3,0.526141833,1
2,2,21,1,21,2,260, man459.jpg, cue_2.jpg,2,0.50507892,1
2,2,22,1,22,2,160, man262.jpg, cue_2.jpg,1,1.338688052,0
2,2,23,1,23,2,94, man144.jpg, cue_2.jpg,2,0.645948946,1
2,2,24,1,24,3,72, man114.jpg, cue_3.jpg,3,0.674028771,1
2,2,25,1,25,2,33, man060.jpg, cue_2.jpg,3,0.59931477,0
2,2,26,1,26,3,199, man341.jpg, cue_3.jpg,1,0.516569749,0
2,2,27,1,27,3,174, man289.jpg, cue_3.jpg,2,0.896829056,0
2,2,28,1,28,2,194, man333.jpg, cue_2.jpg,2,0.950598481,1
2,2,29,1,29,3,230, man403.jpg, cue_3.jpg,3,0.663502948,1
2,2,30,1,30,2,201, man348.jpg, cue_2.jpg,3,0.482900052,0
2,2,31,1,31,2,245, man429.jpg, cue_2.jpg,3,0.538667278,0
2,2,32,1,32,1,108, man166.jpg, cue_1.jpg,1,0.517507668,1
2,2,33,1,33,1,27, man050.jpg, cue_1.jpg,1,0.404213339,1
2,2,34,1,34,3,126, man196.jpg, cue_3.jpg,2,1.004693231,0
2,2,35,1,35,3,39, man067.jpg, cue_3.jpg,3,0.390747204,1
2,2,36,1,36,1,185, man313.jpg, cue_1.jpg,1,0.542281779,1
2,2,37,1,37,3,208, man358.jpg, cue_3.jpg,3,0.430368402,1
2,2,38,1,38,3,58, man094.jpg, cue_3.jpg,2,0.578984071,0
2,2,39,1,39,3,117, man180.jpg, cue_3.jpg,3,0.820175254,1
2,2,40,1,40,1,231, man404.jpg, cue_1.jpg,1,0.919384206,1
2,2,41,1,41,3,120, man187.jpg, cue_3.jpg,3,0.611477317,1
2,2,42,1,42,2,179, man303.jpg, cue_2.jpg,2,0.501873358,1
2,2,43,1,43,2,262, man461.jpg, cue_2.jpg,2,0.823330748,1
2,2,44,1,44,3,110, man168.jpg, cue_3.jpg,1,1.630279572,0
2,2,45,1,45,1,63, man101.jpg, cue_1.jpg,3,1.15761173,0
2,2,46,1,46,3,192, man330.jpg, cue_3.jpg,1,0.661089242,0
2,2,47,1,47,2,257, man450.jpg, cue_2.jpg,2,0.736079677,1
2,2,48,1,48,2,252, man439.jpg, cue_2.jpg,2,0.521323878,1
2,2,49,1,49,1,235, man413.jpg, cue_1.jpg,2,0.709900229,0
2,2,50,1,50,1,144, man240.jpg, cue_1.jpg,1,0.511382241,1
2,2,51,1,51,1,258, man451.jpg, cue_1.jpg,1,0.778815013,1
2,2,52,1,52,2,207, man357.jpg, cue_2.jpg,2,1.031239245,1
2,2,53,1,53,1,138, man222.jpg, cue_1.jpg,1,1.311826779,1
2,2,54,1,54,3,97, man153.jpg, cue_3.jpg,1,1.294888938,0
2,2,55,1,55,1,263, man462.jpg, cue_1.jpg,1,0.529940463,1
2,2,56,1,56,3,95, man145.jpg, cue_3.jpg,3,0.454799618,1
2,2,57,1,57,1,103, man160.jpg, cue_1.jpg,1,0.54545342,1
2,2,58,1,58,1,147, man245.jpg, cue_1.jpg,2,0.51067861,0
2,2,59,1,59,2,37, man064.jpg, cue_2.jpg,2,1.332180058,1
2,2,60,1,60,1,246, man430.jpg, cue_1.jpg,2,1.10685158,0
2,2,61,1,61,1,116, man179.jpg, cue_1.jpg,1,0.589294684,1
2,2,62,1,62,2,53, man088.jpg, cue_2.jpg,2,0.532713491,1
2,2,63,1,63,2,270, man471.jpg, cue_2.jpg,2,0.827458163,1
2,2,64,1,64,1,238, man417.jpg, cue_1.jpg,1,0.976239596,1
2,2,65,1,65,3,224, man387.jpg, cue_3.jpg,3,0.470742759,1
2,2,66,1,66,2,115, man177.jpg, cue_2.jpg,2,1.045481853,1
2,2,67,1,67,1,153, man252.jpg, cue_1.jpg,1,0.554999917,1
2,2,68,1,68,2,35, man062.jpg, cue_2.jpg,2,0.625840013,1
2,2,69,1,69,3,68, man109.jpg, cue_3.jpg,3,0.747715377,1
2,2,70,1,70,1,125, man193.jpg, cue_1.jpg,1,0.874546685,1
2,2,71,1,71,3,233, man410.jpg, cue_3.jpg,3,0.560202551,1
2,2,72,1,72,3,36, man063.jpg, cue_3.jpg,1,0.666242611,0
2,2,73,1,73,3,81, man125.jpg, cue_3.jpg,3,0.702745942,1
2,2,74,1,74,1,173, man287.jpg, cue_1.jpg,2,0.467303217,0
2,2,75,1,75,3,197, man338.jpg, cue_3.jpg,3,0.663562602,1
2,2,76,1,76,1,176, man298.jpg, cue_1.jpg,1,1.594118094,1
2,2,77,1,77,1,202, man350.jpg, cue_1.jpg,2,0.982117429,0
2,2,78,1,78,3,137, man221.jpg, cue_3.jpg,2,0.478091208,0
2,2,79,1,79,1,162, man268.jpg, cue_1.jpg,1,1.712247179,1
2,2,80,1,80,2,98, man154.jpg, cue_2.jpg,2,0.594785444,1
2,2,81,1,81,2,28, man052.jpg, cue_2.jpg,2,0.575870295,1
2,2,82,1,82,3,152, man250.jpg, cue_3.jpg,3,0.700454995,1
2,2,83,1,83,2,15, man032.jpg, cue_2.jpg,2,0.553429304,1
2,2,84,1,84,3,57, man093.jpg, cue_3.jpg,1,0.521824549,0
2,2,85,1,85,3,180, man304.jpg, cue_3.jpg,1,0.961390269,0
2,2,86,1,86,1,133, man207.jpg, cue_1.jpg,3,0.532753922,0
2,2,87,1,87,1,22, man042.jpg, cue_1.jpg,3,0.573970465,0
2,2,88,1,88,1,148, man246.jpg, cue_1.jpg,1,0.363653063,1
2,2,89,1,89,2,229, man401.jpg, cue_2.jpg,2,0.590492245,1
2,2,90,1,90,1,259, man453.jpg, cue_1.jpg,3,0.988506328,0
2,2,91,2,1,1,144, man240.jpg, cue_1.jpg,1,0.44539947,1
2,2,92,2,2,3,52, man086.jpg, cue_3.jpg,3,0.283769971,1
2,2,93,2,3,1,138, man222.jpg, cue_1.jpg,1,0.357250173,1
2,2,94,2,4,1,263, man462.jpg, cue_1.jpg,1,0.404368424,1
2,2,95,2,5,3,174, man289.jpg, cue_3.jpg,3,0.333393507,1
2,2,96,2,6,2,239, man421.jpg, cue_2.jpg,1,0.545883448,0
2,2,97,2,7,1,235, man413.jpg, cue_1.jpg,1,0.490643935,1
2,2,98,2,8,3,180, man304.jpg, cue_3.jpg,3,0.387033325,1
2,2,99,2,9,3,88, man135.jpg, cue_3.jpg,3,0.244981853,1
2,2,100,2,10,2,262, man461.jpg, cue_2.jpg,2,0.220093278,1
2,2,101,2,11,2,179, man303.jpg, cue_2.jpg,2,0.42757446,1
2,2,102,2,12,2,35, man062.jpg, cue_2.jpg,2,0.767651402,1
2,2,103,2,13,3,95, man145.jpg, cue_3.jpg,3,0.291060789,1
2,2,104,2,14,2,33, man060.jpg, cue_2.jpg,2,0.231367376,1
2,2,105,2,15,2,109, man167.jpg, cue_2.jpg,1,0.380473248,0
2,2,106,2,16,1,176, man298.jpg, cue_1.jpg,1,0.489204608,1
2,2,107,2,17,1,202, man350.jpg, cue_1.jpg,1,0.635846355,1
2,2,108,2,18,3,68, man109.jpg, cue_3.jpg,3,0.179652565,1
2,2,109,2,19,3,110, man168.jpg, cue_3.jpg,3,0.337070351,1
2,2,110,2,20,2,15, man032.jpg, cue_2.jpg,2,0.432998059,1
2,2,111,2,21,2,252, man439.jpg, cue_2.jpg,2,0.296947917,1
2,2,112,2,22,2,122, man189.jpg, cue_2.jpg,3,0.137048449,0
2,2,113,2,23,2,28, man052.jpg, cue_2.jpg,2,0.481165486,1
2,2,114,2,24,1,173, man287.jpg, cue_1.jpg,1,0.382546846,1
2,2,115,2,25,1,185, man313.jpg, cue_1.jpg,1,0.719011086,1
2,2,116,2,26,1,175, man291.jpg, cue_1.jpg,1,0.806944693,1
2,2,117,2,27,3,233, man410.jpg, cue_3.jpg,3,0.335168085,1
2,2,118,2,28,2,5, man010.jpg, cue_2.jpg,2,0.416645187,1
2,2,119,2,29,3,199, man341.jpg, cue_3.jpg,3,0.80778221,1
2,2,120,2,30,1,258, man451.jpg, cue_1.jpg,1,0.31622811,1
2,2,121,2,31,1,148, man246.jpg, cue_1.jpg,1,0.358169975,1
2,2,122,2,32,1,259, man453.jpg, cue_1.jpg,1,0.550783077,1
2,2,123,2,33,2,111, man169.jpg, cue_2.jpg,2,0.561929362,1
2,2,124,2,34,1,238, man417.jpg, cue_1.jpg,1,0.270053137,1
2,2,125,2,35,1,22, man042.jpg, cue_1.jpg,1,0.73325821,1
2,2,126,2,36,3,224, man387.jpg, cue_3.jpg,3,0.169439467,1
2,2,127,2,37,2,260, man459.jpg, cue_2.jpg,2,0.298952699,1
2,2,128,2,38,1,231, man404.jpg, cue_1.jpg,1,0.572480005,1
2,2,129,2,39,3,197, man338.jpg, cue_3.jpg,3,0.42092288,1
2,2,130,2,40,2,98, man154.jpg, cue_2.jpg,2,0.62007391,1
2,2,131,2,41,1,60, man096.jpg, cue_1.jpg,3,0.459785657,0
2,2,132,2,42,2,257, man450.jpg, cue_2.jpg,2,0.394423296,1
2,2,133,2,43,2,17, man035.jpg, cue_2.jpg,2,0.645092908,1
2,2,134,2,44,2,183, man311.jpg, cue_2.jpg,2,0.486265012,1
2,2,135,2,45,1,64, man102.jpg, cue_1.jpg,1,0.327076413,1
2,2,136,2,46,3,137, man221.jpg, cue_3.jpg,2,0.272035036,0
2,2,137,2,47,3,230, man403.jpg, cue_3.jpg,3,0.325622099,1
2,2,138,2,48,2,229, man401.jpg, cue_2.jpg,2,0.304176099,1
2,2,139,2,49,2,53, man088.jpg, cue_2.jpg,2,0.455909215,1
2,2,140,2,50,3,120, man187.jpg, cue_3.jpg,3,0.475523368,1
2,2,141,2,51,3,58, man094.jpg, cue_3.jpg,3,0.352024496,1
2,2,142,2,52,2,210, man360.jpg, cue_2.jpg,2,0.278414294,1
2,2,143,2,53,3,117, man180.jpg, cue_3.jpg,3,0.265253,1
2,2,144,2,54,3,208, man358.jpg, cue_3.jpg,2,0.352037848,0
2,2,145,2,55,3,105, man162.jpg, cue_3.jpg,3,0.489874617,1
2,2,146,2,56,3,57, man093.jpg, cue_3.jpg,1,0.334881147,0
2,2,147,2,57,1,103, man160.jpg, cue_1.jpg,1,0.573530303,1
2,2,148,2,58,1,162, man268.jpg, cue_1.jpg,1,0.434132586,1
2,2,149,2,59,3,171, man282.jpg, cue_3.jpg,3,0.705474552,1
2,2,150,2,60,1,116, man179.jpg, cue_1.jpg,1,0.679639207,1
2,2,151,2,61,3,255, man446.jpg, cue_3.jpg,1,0.464648691,0
2,2,152,2,62,3,97, man153.jpg, cue_3.jpg,3,0.620727263,1
2,2,153,2,63,1,59, man095.jpg, cue_1.jpg,1,0.267753553,1
2,2,154,2,64,3,192, man330.jpg, cue_3.jpg,3,0.356130912,1
2,2,155,2,65,3,36, man063.jpg, cue_3.jpg,2,0.34104543,0
2,2,156,2,66,1,63, man101.jpg, cue_1.jpg,1,0.697951846,1
2,2,157,2,67,3,39, man067.jpg, cue_3.jpg,3,0.325114703,1
2,2,158,2,68,3,81, man125.jpg, cue_3.jpg,3,1.621585646,1
2,2,159,2,69,3,152, man250.jpg, cue_3.jpg,3,0.232126162,1
2,2,160,2,70,1,246, man430.jpg, cue_1.jpg,1,0.277597062,1
2,2,161,2,71,3,126, man196.jpg, cue_3.jpg,2,0.298710801,0
2,2,162,2,72,1,147, man245.jpg, cue_1.jpg,1,0.30517772,1
2,2,163,2,73,3,72, man114.jpg, cue_3.jpg,3,0.321533577,1
2,2,164,2,74,2,245, man429.jpg, cue_2.jpg,2,0.266530455,1
2,2,165,2,75,1,133, man207.jpg, cue_1.jpg,1,1.194719949,1
2,2,166,2,76,2,37, man064.jpg, cue_2.jpg,2,0.263620863,1
2,2,167,2,77,2,160, man262.jpg, cue_2.jpg,2,0.351634543,1
2,2,168,2,78,2,194, man333.jpg, cue_2.jpg,2,0.337187266,1
2,2,169,2,79,2,94, man144.jpg, cue_2.jpg,2,0.341247679,1
2,2,170,2,80,2,201, man348.jpg, cue_2.jpg,2,0.745012774,1
2,2,171,2,81,1,20, man040.jpg, cue_1.jpg,1,0.673533903,1
2,2,172,2,82,1,108, man166.jpg, cue_1.jpg,1,0.537682996,1
2,2,173,2,83,2,115, man177.jpg, cue_2.jpg,2,0.49020002,1
2,2,174,2,84,3,113, man172.jpg, cue_3.jpg,3,0.429495672,1
2,2,175,2,85,2,270, man471.jpg, cue_2.jpg,2,0.468497782,1
2,2,176,2,86,2,207, man357.jpg, cue_2.jpg,2,1.311193569,1
2,2,177,2,87,2,209, man359.jpg, cue_2.jpg,2,1.660440835,1
2,2,178,2,88,1,153, man252.jpg, cue_1.jpg,1,1.08997854,1
2,2,179,2,89,1,125, man193.jpg, cue_1.jpg,1,0.421765154,1
2,2,180,2,90,1,27, man050.jpg, cue_1.jpg,1,0.518725336,1
2,2,181,3,1,1,60, man096.jpg, cue_1.jpg,1,0.887838247,1
2,2,182,3,2,3,224, man387.jpg, cue_3.jpg,3,0.781940117,1
2,2,183,3,3,3,120, man187.jpg, cue_3.jpg,3,0.464296139,1
2,2,184,3,4,2,53, man088.jpg, cue_2.jpg,2,0.205883974,1
2,2,185,3,5,2,179, man303.jpg, cue_2.jpg,2,0.615004663,1
2,2,186,3,6,1,176, man298.jpg, cue_1.jpg,1,0.452036748,1
2,2,187,3,7,3,36, man063.jpg, cue_3.jpg,2,0.466469316,0
2,2,188,3,8,1,202, man350.jpg, cue_1.jpg,1,0.335570862,1
2,2,189,3,9,3,208, man358.jpg, cue_3.jpg,3,0.393038321,1
2,2,190,3,10,1,259, man453.jpg, cue_1.jpg,1,0.488541351,1
2,2,191,3,11,2,98, man154.jpg, cue_2.jpg,2,0.799171549,1
2,2,192,3,12,2,207, man357.jpg, cue_2.jpg,2,0.286293238,1
2,2,193,3,13,2,252, man439.jpg, cue_2.jpg,2,0.314383237,1
2,2,194,3,14,1,27, man050.jpg, cue_1.jpg,1,0.253103056,1
2,2,195,3,15,3,137, man221.jpg, cue_3.jpg,3,0.342118349,1
2,2,196,3,16,3,171, man282.jpg, cue_3.jpg,3,0.270803187,1
2,2,197,3,17,2,33, man060.jpg, cue_2.jpg,2,0.261691164,1
2,2,198,3,18,3,52, man086.jpg, cue_3.jpg,3,0.260007855,1
2,2,199,3,19,1,173, man287.jpg, cue_1.jpg,2,0.484380588,0
2,2,200,3,20,1,64, man102.jpg, cue_1.jpg,1,0.507726032,1
2,2,201,3,21,2,239, man421.jpg, cue_2.jpg,2,0.340437352,1
2,2,202,3,22,3,72, man114.jpg, cue_3.jpg,3,0.321740454,1
2,2,203,3,23,1,185, man313.jpg, cue_1.jpg,1,0.348152445,1
2,2,204,3,24,3,110, man168.jpg, cue_3.jpg,3,0.361711787,1
2,2,205,3,25,2,111, man169.jpg, cue_2.jpg,2,0.298282958,1
2,2,206,3,26,1,20, man040.jpg, cue_1.jpg,1,0.161540638,1
2,2,207,3,27,1,138, man222.jpg, cue_1.jpg,1,0.416294733,1
2,2,208,3,28,2,245, man429.jpg, cue_2.jpg,2,0.389618822,1
2,2,209,3,29,2,28, man052.jpg, cue_2.jpg,2,0.401409746,1
2,2,210,3,30,1,22, man042.jpg, cue_1.jpg,1,0.389239409,1
2,2,211,3,31,1,235, man413.jpg, cue_1.jpg,1,0.266598251,1
2,2,212,3,32,1,246, man430.jpg, cue_1.jpg,1,0.539865595,1
2,2,213,3,33,2,210, man360.jpg, cue_2.jpg,2,0.549325729,1
2,2,214,3,34,2,262, man461.jpg, cue_2.jpg,2,0.384722236,1
2,2,215,3,35,3,180, man304.jpg, cue_3.jpg,3,0.336462217,1
2,2,216,3,36,3,81, man125.jpg, cue_3.jpg,3,0.272673939,1
2,2,217,3,37,1,147, man245.jpg, cue_1.jpg,1,0.295868246,1
2,2,218,3,38,2,209, man359.jpg, cue_2.jpg,2,0.373185489,1
2,2,219,3,39,1,116, man179.jpg, cue_1.jpg,1,1.215227568,1
2,2,220,3,40,1,238, man417.jpg, cue_1.jpg,1,0.563020573,1
2,2,221,3,41,3,57, man093.jpg, cue_3.jpg,3,0.342776398,1
2,2,222,3,42,3,117, man180.jpg, cue_3.jpg,3,0.310890664,1
2,2,223,3,43,2,37, man064.jpg, cue_2.jpg,2,0.314615551,1
2,2,224,3,44,3,68, man109.jpg, cue_3.jpg,3,0.441528811,1
2,2,225,3,45,2,270, man471.jpg, cue_2.jpg,2,0.206991949,1
2,2,226,3,46,2,17, man035.jpg, cue_2.jpg,2,0.26431022,1
2,2,227,3,47,2,109, man167.jpg, cue_2.jpg,2,0.466711234,1
2,2,228,3,48,2,115, man177.jpg, cue_2.jpg,2,0.459943971,1
2,2,229,3,49,3,192, man330.jpg, cue_3.jpg,3,0.717214421,1
2,2,230,3,50,1,148, man246.jpg, cue_1.jpg,1,0.386819275,1
2,2,231,3,51,3,199, man341.jpg, cue_3.jpg,3,0.360967513,1
2,2,232,3,52,3,230, man403.jpg, cue_3.jpg,3,0.196155015,1
2,2,233,3,53,3,197, man338.jpg, cue_3.jpg,3,0.478983656,1
2,2,234,3,54,2,194, man333.jpg, cue_2.jpg,2,0.308244388,1
2,2,235,3,55,2,183, man311.jpg, cue_2.jpg,2,0.765083767,1
2,2,236,3,56,2,201, man348.jpg, cue_2.jpg,2,0.381647308,1
2,2,237,3,57,1,63, man101.jpg, cue_1.jpg,1,0.487001258,1
2,2,238,3,58,1,125, man193.jpg, cue_1.jpg,1,0.755597828,1
2,2,239,3,59,2,160, man262.jpg, cue_2.jpg,2,0.38454475,1
2,2,240,3,60,2,257, man450.jpg, cue_2.jpg,2,0.419886001,1
2,2,241,3,61,2,35, man062.jpg, cue_2.jpg,2,0.344164168,1
2,2,242,3,62,3,113, man172.jpg, cue_3.jpg,3,0.317470987,1
2,2,243,3,63,2,5, man010.jpg, cue_2.jpg,2,0.300413329,1
2,2,244,3,64,1,59, man095.jpg, cue_1.jpg,1,0.330885847,1
2,2,245,3,65,3,174, man289.jpg, cue_3.jpg,2,0.443999336,0
2,2,246,3,66,2,260, man459.jpg, cue_2.jpg,2,0.396498791,1
2,2,247,3,67,1,258, man451.jpg, cue_1.jpg,1,0.23297493,1
2,2,248,3,68,3,233, man410.jpg, cue_3.jpg,3,0.382178969,1
2,2,249,3,69,1,153, man252.jpg, cue_1.jpg,1,0.62636733,1
2,2,250,3,70,1,144, man240.jpg, cue_1.jpg,1,0.261078871,1
2,2,251,3,71,1,231, man404.jpg, cue_1.jpg,1,0.481512769,1
2,2,252,3,72,1,108, man166.jpg, cue_1.jpg,1,0.413018145,1
2,2,253,3,73,3,58, man094.jpg, cue_3.jpg,3,0.386549305,1
2,2,254,3,74,1,103, man160.jpg, cue_1.jpg,1,0.821628698,1
2,2,255,3,75,2,229, man401.jpg, cue_2.jpg,2,0.366645321,1
2,2,256,3,76,2,122, man189.jpg, cue_2.jpg,2,0.365362668,1
2,2,257,3,77,3,39, man067.jpg, cue_3.jpg,3,0.433797448,1
2,2,258,3,78,3,152, man250.jpg, cue_3.jpg,3,0.32930755,1
2,2,259,3,79,2,15, man032.jpg, cue_2.jpg,2,0.384895496,1
2,2,260,3,80,3,105, man162.jpg, cue_3.jpg,3,0.385123258,1
2,2,261,3,81,2,94, man144.jpg, cue_2.jpg,2,0.280582265,1
2,2,262,3,82,1,133, man207.jpg, cue_1.jpg,1,0.411320828,1
2,2,263,3,83,1,263, man462.jpg, cue_1.jpg,1,0.580682057,1
2,2,264,3,84,3,97, man153.jpg, cue_3.jpg,3,0.422725227,1
2,2,265,3,85,1,162, man268.jpg, cue_1.jpg,1,0.460729951,1
2,2,266,3,86,3,126, man196.jpg, cue_3.jpg,2,0.689592125,0
2,2,267,3,87,3,88, man135.jpg, cue_3.jpg,3,0.405680672,1
2,2,268,3,88,1,175, man291.jpg, cue_1.jpg,1,0.277732635,1
2,2,269,3,89,3,95, man145.jpg, cue_3.jpg,3,0.411888697,1
2,2,270,3,90,3,255, man446.jpg, cue_3.jpg,3,0.516969864,1
2,2,271,4,1,2,229, man401.jpg, cue_2.jpg,2,0.720937787,1
2,2,272,4,2,1,176, man298.jpg, cue_1.jpg,1,0.332300834,1
2,2,273,4,3,1,258, man451.jpg, cue_1.jpg,1,0.314602705,1
2,2,274,4,4,2,245, man429.jpg, cue_2.jpg,2,0.377540507,1
2,2,275,4,5,3,88, man135.jpg, cue_3.jpg,3,0.436605246,1
2,2,276,4,6,1,235, man413.jpg, cue_1.jpg,1,0.422407238,1
2,2,277,4,7,3,97, man153.jpg, cue_3.jpg,3,0.290257133,1
2,2,278,4,8,2,35, man062.jpg, cue_2.jpg,2,0.341040056,1
2,2,279,4,9,3,52, man086.jpg, cue_3.jpg,3,0.33163883,1
2,2,280,4,10,3,255, man446.jpg, cue_3.jpg,1,0.287953432,0
2,2,281,4,11,1,22, man042.jpg, cue_1.jpg,1,0.359320801,1
2,2,282,4,12,2,201, man348.jpg, cue_2.jpg,2,0.237490113,1
2,2,283,4,13,2,257, man450.jpg, cue_2.jpg,2,0.433648302,1
2,2,284,4,14,1,148, man246.jpg, cue_1.jpg,1,0.582254254,1
2,2,285,4,15,1,125, man193.jpg, cue_1.jpg,1,0.351265183,1
2,2,286,4,16,1,60, man096.jpg, cue_1.jpg,1,0.23701682,1
2,2,287,4,17,1,64, man102.jpg, cue_1.jpg,1,0.486171437,1
2,2,288,4,18,1,147, man245.jpg, cue_1.jpg,1,0.307463291,1
2,2,289,4,19,2,33, man060.jpg, cue_2.jpg,2,0.359276422,1
2,2,290,4,20,2,179, man303.jpg, cue_2.jpg,2,0.52857828,1
2,2,291,4,21,2,262, man461.jpg, cue_2.jpg,2,0.300880183,1
2,2,292,4,22,1,246, man430.jpg, cue_1.jpg,1,0.678337635,1
2,2,293,4,23,3,113, man172.jpg, cue_3.jpg,3,0.315966029,1
2,2,294,4,24,3,120, man187.jpg, cue_3.jpg,3,0.427551438,1
2,2,295,4,25,3,174, man289.jpg, cue_3.jpg,3,0.408550321,1
2,2,296,4,26,3,230, man403.jpg, cue_3.jpg,3,0.881328876,1
2,2,297,4,27,3,57, man093.jpg, cue_3.jpg,3,0.195846104,1
2,2,298,4,28,1,263, man462.jpg, cue_1.jpg,1,0.331654583,1
2,2,299,4,29,3,105, man162.jpg, cue_3.jpg,3,0.291968883,1
2,2,300,4,30,1,202, man350.jpg, cue_1.jpg,1,0.416324974,1
2,2,301,4,31,3,199, man341.jpg, cue_3.jpg,3,0.385484269,1
2,2,302,4,32,2,122, man189.jpg, cue_2.jpg,2,0.314041646,1
2,2,303,4,33,1,59, man095.jpg, cue_1.jpg,1,0.485650239,1
2,2,304,4,34,3,137, man221.jpg, cue_3.jpg,3,0.342138848,1
2,2,305,4,35,2,53, man088.jpg, cue_2.jpg,2,0.278453781,1
2,2,306,4,36,1,116, man179.jpg, cue_1.jpg,1,0.206275056,1
2,2,307,4,37,1,103, man160.jpg, cue_1.jpg,1,0.637776527,1
2,2,308,4,38,3,110, man168.jpg, cue_3.jpg,3,0.341937234,1
2,2,309,4,39,1,108, man166.jpg, cue_1.jpg,1,0.507015705,1
2,2,310,4,40,3,72, man114.jpg, cue_3.jpg,3,0.465955384,1
2,2,311,4,41,1,138, man222.jpg, cue_1.jpg,1,0.604478322,1
2,2,312,4,42,2,160, man262.jpg, cue_2.jpg,2,0.411314617,1
2,2,313,4,43,3,36, man063.jpg, cue_3.jpg,2,0.432980894,0
2,2,314,4,44,1,175, man291.jpg, cue_1.jpg,1,0.739109749,1
2,2,315,4,45,2,94, man144.jpg, cue_2.jpg,2,0.563645791,1
2,2,316,4,46,2,209, man359.jpg, cue_2.jpg,2,0.230095936,1
2,2,317,4,47,1,238, man417.jpg, cue_1.jpg,1,0.717590262,1
2,2,318,4,48,3,68, man109.jpg, cue_3.jpg,3,0.124224858,1
2,2,319,4,49,2,37, man064.jpg, cue_2.jpg,2,0.390708655,1
2,2,320,4,50,3,117, man180.jpg, cue_3.jpg,3,0.240235711,1
2,2,321,4,51,2,111, man169.jpg, cue_2.jpg,2,0.459620143,1
2,2,322,4,52,2,5, man010.jpg, cue_2.jpg,2,0.339003962,1
2,2,323,4,53,1,185, man313.jpg, cue_1.jpg,1,0.332059941,1
2,2,324,4,54,1,162, man268.jpg, cue_1.jpg,1,0.398071307,1
2,2,325,4,55,2,98, man154.jpg, cue_2.jpg,2,0.320490415,1
2,2,326,4,56,2,239, man421.jpg, cue_2.jpg,2,0.307728565,1
2,2,327,4,57,3,180, man304.jpg, cue_3.jpg,3,0.219390867,1
2,2,328,4,58,2,194, man333.jpg, cue_2.jpg,2,0.207258974,1
2,2,329,4,59,3,39, man067.jpg, cue_3.jpg,3,0.498203652,1
2,2,330,4,60,2,270, man471.jpg, cue_2.jpg,2,0.251893666,1
2,2,331,4,61,1,173, man287.jpg, cue_1.jpg,1,0.381173003,1
2,2,332,4,62,1,63, man101.jpg, cue_1.jpg,1,0.456124717,1
2,2,333,4,63,2,15, man032.jpg, cue_2.jpg,2,0.22030466,1
2,2,334,4,64,3,152, man250.jpg, cue_3.jpg,3,0.256741418,1
2,2,335,4,65,2,115, man177.jpg, cue_2.jpg,2,0.285658636,1
2,2,336,4,66,1,144, man240.jpg, cue_1.jpg,1,0.208070479,1
2,2,337,4,67,2,260, man459.jpg, cue_2.jpg,2,0.281925869,1
2,2,338,4,68,3,95, man145.jpg, cue_3.jpg,3,0.285774941,1
2,2,339,4,69,3,224, man387.jpg, cue_3.jpg,3,0.284141302,1
2,2,340,4,70,2,17, man035.jpg, cue_2.jpg,2,0.292956402,1
2,2,341,4,71,1,259, man453.jpg, cue_1.jpg,1,0.385047521,1
2,2,342,4,72,3,126, man196.jpg, cue_3.jpg,3,0.373254445,1
2,2,343,4,73,1,231, man404.jpg, cue_1.jpg,1,0.313425335,1
2,2,344,4,74,3,197, man338.jpg, cue_3.jpg,3,0.373170074,1
2,2,345,4,75,1,153, man252.jpg, cue_1.jpg,1,0.249137067,1
2,2,346,4,76,3,233, man410.jpg, cue_3.jpg,3,0.348163798,1
2,2,347,4,77,1,20, man040.jpg, cue_1.jpg,1,0.435339611,1
2,2,348,4,78,2,210, man360.jpg, cue_2.jpg,2,0.372093003,1
2,2,349,4,79,3,208, man358.jpg, cue_3.jpg,3,0.30828095,1
2,2,350,4,80,2,183, man311.jpg, cue_2.jpg,2,0.510107238,1
2,2,351,4,81,3,192, man330.jpg, cue_3.jpg,3,0.515963041,1
2,2,352,4,82,2,252, man439.jpg, cue_2.jpg,2,0.361757579,1
2,2,353,4,83,2,207, man357.jpg, cue_2.jpg,2,0.125747091,1
2,2,354,4,84,3,58, man094.jpg, cue_3.jpg,3,0.3997032,1
2,2,355,4,85,1,133, man207.jpg, cue_1.jpg,1,0.396860856,1
2,2,356,4,86,3,81, man125.jpg, cue_3.jpg,3,0.355325877,1
2,2,357,4,87,2,28, man052.jpg, cue_2.jpg,2,0.465751257,1
2,2,358,4,88,2,109, man167.jpg, cue_2.jpg,2,0.228164977,1
2,2,359,4,89,3,171, man282.jpg, cue_3.jpg,3,0.547534365,1
2,2,360,4,90,1,27, man050.jpg, cue_1.jpg,1,0.299584396,1
3,1,1,1,1,2,26, man048.jpg, cue_2.jpg,2,0.832907068,1
3,1,2,1,2,1,36, man063.jpg, cue_1.jpg,1,0.711849343,1
3,1,3,1,3,2,172, man283.jpg, cue_2.jpg,2,0.459111318,1
3,1,4,1,4,2,156, man257.jpg, cue_2.jpg,2,1.265149379,1
3,1,5,1,5,1,230, man403.jpg, cue_1.jpg,1,1.14745608,1
3,1,6,1,6,2,258, man451.jpg, cue_2.jpg,2,0.476625835,1
3,1,7,1,7,2,261, man460.jpg, cue_2.jpg,2,1.277390738,1
3,1,8,1,8,2,263, man462.jpg, cue_2.jpg,2,0.664995626,1
3,1,9,1,9,1,235, man413.jpg, cue_1.jpg,1,0.523465158,1
3,1,10,1,10,2,130, man203.jpg, cue_2.jpg,2,1.414944728,1
3,1,11,1,11,3,23, man044.jpg, cue_3.jpg,3,1.272008427,1
3,1,12,1,12,1,143, man237.jpg, cue_1.jpg,1,1.254378454,1
3,1,13,1,13,2,267, man466.jpg, cue_2.jpg,2,0.767946567,1
3,1,14,1,14,3,33, man060.jpg, cue_3.jpg,3,1.561666094,1
3,1,15,1,15,3,79, man123.jpg, cue_3.jpg,3,0.686634121,1
3,1,16,1,16,3,237, man416.jpg, cue_3.jpg,3,1.498670302,1
3,1,17,1,17,2,226, man390.jpg, cue_2.jpg,2,0.78544178,1
3,1,18,1,18,1,205, man354.jpg, cue_1.jpg,1,0.59235606,1
3,1,19,1,19,1,250, man436.jpg, cue_1.jpg,1,0.421665329,1
3,1,20,1,20,3,242, man424.jpg, cue_3.jpg,3,0.397224109,1
3,1,21,1,21,2,101, man157.jpg, cue_2.jpg,2,0.857882639,1
3,1,22,1,22,2,27, man050.jpg, cue_2.jpg,2,0.460934076,1
3,1,23,1,23,1,113, man172.jpg, cue_1.jpg,1,0.463765725,1
3,1,24,1,24,3,32, man059.jpg, cue_3.jpg,3,0.509710265,1
3,1,25,1,25,3,71, man112.jpg, cue_3.jpg,1,0.410372844,0
3,1,26,1,26,2,240, man422.jpg, cue_2.jpg,3,0.367106972,0
3,1,27,1,27,2,96, man149.jpg, cue_2.jpg,2,1.588055378,1
3,1,28,1,28,2,161, man267.jpg, cue_2.jpg,2,0.545525397,1
3,1,29,1,29,1,256, man447.jpg, cue_1.jpg,1,0.503316235,1
3,1,30,1,30,3,90, man137.jpg, cue_3.jpg,3,0.443210321,1
3,1,31,1,31,2,99, man155.jpg, cue_2.jpg,2,0.651353865,1
3,1,32,1,32,3,65, man104.jpg, cue_3.jpg,3,1.076641826,1
3,1,33,1,33,2,249, man434.jpg, cue_2.jpg,2,0.549143282,1
3,1,34,1,34,3,234, man412.jpg, cue_3.jpg,3,1.16398652,1
3,1,35,1,35,1,259, man453.jpg, cue_1.jpg,1,1.3575831,1
3,1,36,1,36,3,142, man234.jpg, cue_3.jpg,3,1.265548891,1
3,1,37,1,37,2,166, man276.jpg, cue_2.jpg,2,0.812385328,1
3,1,38,1,38,2,133, man207.jpg, cue_2.jpg,3,0.864639287,0
3,1,39,1,39,3,82, man126.jpg, cue_3.jpg,3,0.663720373,1
3,1,40,1,40,1,8, man019.jpg, cue_1.jpg,1,0.832667301,1
3,1,41,1,41,1,173, man287.jpg, cue_1.jpg,1,0.872689677,1
3,1,42,1,42,1,54, man089.jpg, cue_1.jpg,1,0.971176262,1
3,1,43,1,43,3,40, man068.jpg, cue_3.jpg,2,0.737642396,0
3,1,44,1,44,2,200, man345.jpg, cue_2.jpg,2,1.194796789,1
3,1,45,1,45,3,22, man042.jpg, cue_3.jpg,3,1.412934522,1
3,1,46,1,46,1,243, man427.jpg, cue_1.jpg,1,0.670513659,1
3,1,47,1,47,1,131, man205.jpg, cue_1.jpg,1,0.672449907,1
3,1,48,1,48,1,247, man431.jpg, cue_1.jpg,1,1.693823291,1
3,1,49,1,49,2,269, man468.jpg, cue_2.jpg,2,0.852183574,1
3,1,50,1,50,1,6, man016.jpg, cue_1.jpg,1,0.83990838,1
3,1,51,1,51,3,80, man124.jpg, cue_3.jpg,3,0.693794302,1
3,1,52,1,52,1,92, man139.jpg, cue_1.jpg,1,0.892979204,1
3,1,53,1,53,1,60, man096.jpg, cue_1.jpg,1,1.304779326,1
3,1,54,1,54,2,149, man247.jpg, cue_2.jpg,2,0.454690106,1
3,1,55,1,55,1,42, man071.jpg, cue_1.jpg,1,0.789880493,1
3,1,56,1,56,2,116, man179.jpg, cue_2.jpg,2,0.573074359,1
3,1,57,1,57,1,222, man383.jpg, cue_1.jpg,1,0.755534681,1
3,1,58,1,58,1,193, man332.jpg, cue_1.jpg,1,0.635939976,1
3,1,59,1,59,3,45, man076.jpg, cue_3.jpg,3,0.590117771,1
3,1,60,1,60,1,107, man165.jpg, cue_1.jpg,1,0.780584859,1
3,1,61,1,61,3,208, man358.jpg, cue_3.jpg,3,0.836199659,1
3,1,62,1,62,1,15, man032.jpg, cue_1.jpg,2,0.641702757,0
3,1,63,1,63,2,204, man352.jpg, cue_2.jpg,2,1.357626465,1
3,1,64,1,64,1,252, man439.jpg, cue_1.jpg,1,0.898859278,1
3,1,65,1,65,1,260, man459.jpg, cue_1.jpg,1,0.671086586,1
3,1,66,1,66,2,70, man111.jpg, cue_2.jpg,2,0.440757547,1
3,1,67,1,67,1,219, man378.jpg, cue_1.jpg,1,0.488134108,1
3,1,68,1,68,3,199, man341.jpg, cue_3.jpg,3,0.785342532,1
3,1,69,1,69,3,5, man010.jpg, cue_3.jpg,3,0.611818929,1
3,1,70,1,70,2,122, man189.jpg, cue_2.jpg,2,0.548512976,1
3,1,71,1,71,2,38, man066.jpg, cue_2.jpg,2,0.599340364,1
3,1,72,1,72,2,28, man052.jpg, cue_2.jpg,2,0.640544543,1
3,1,73,1,73,3,144, man240.jpg, cue_3.jpg,3,1.516462756,1
3,1,74,1,74,3,86, man131.jpg, cue_3.jpg,3,1.622299203,1
3,1,75,1,75,3,20, man040.jpg, cue_3.jpg,3,0.378816544,1
3,1,76,1,76,1,248, man433.jpg, cue_1.jpg,1,0.574299549,1
3,1,77,1,77,3,187, man315.jpg, cue_3.jpg,3,0.729828353,1
3,1,78,1,78,3,139, man223.jpg, cue_3.jpg,3,0.579116761,1
3,1,79,1,79,3,18, man036.jpg, cue_3.jpg,3,0.724539592,1
3,1,80,1,80,2,108, man166.jpg, cue_2.jpg,2,1.08414361,1
3,1,81,1,81,1,191, man328.jpg, cue_1.jpg,1,1.463593552,1
3,1,82,1,82,2,164, man273.jpg, cue_2.jpg,2,0.865508877,1
3,1,83,1,83,3,239, man421.jpg, cue_3.jpg,2,1.450007186,0
3,1,84,1,84,3,188, man316.jpg, cue_3.jpg,3,0.667624513,1
3,1,85,1,85,3,119, man186.jpg, cue_3.jpg,3,0.50733292,1
3,1,86,1,86,3,25, man047.jpg, cue_3.jpg,3,0.651671145,1
3,1,87,1,87,3,145, man242.jpg, cue_3.jpg,3,0.814085497,1
3,1,88,1,88,1,202, man350.jpg, cue_1.jpg,1,0.882815317,1
3,1,89,1,89,2,171, man282.jpg, cue_2.jpg,2,0.862880911,1
3,1,90,1,90,1,103, man160.jpg, cue_1.jpg,1,0.844316851,1
3,1,91,2,1,1,243, man427.jpg, cue_1.jpg,1,0.984802248,1
3,1,92,2,2,1,92, man139.jpg, cue_1.jpg,1,0.292238697,1
3,1,93,2,3,2,200, man345.jpg, cue_2.jpg,2,0.287599311,1
3,1,94,2,4,2,27, man050.jpg, cue_2.jpg,2,0.284901873,1
3,1,95,2,5,2,38, man066.jpg, cue_2.jpg,2,0.409471121,1
3,1,96,2,6,1,193, man332.jpg, cue_1.jpg,1,0.16517008,1
3,1,97,2,7,2,249, man434.jpg, cue_2.jpg,2,1.262549929,1
3,1,98,2,8,1,247, man431.jpg, cue_1.jpg,1,0.660820397,1
3,1,99,2,9,3,5, man010.jpg, cue_3.jpg,3,0.49876855,1
3,1,100,2,10,3,139, man223.jpg, cue_3.jpg,3,0.296105425,1
3,1,101,2,11,1,36, man063.jpg, cue_1.jpg,1,0.352389424,1
3,1,102,2,12,2,263, man462.jpg, cue_2.jpg,2,0.249755236,1
3,1,103,2,13,1,235, man413.jpg, cue_1.jpg,1,0.66567168,1
3,1,104,2,14,3,82, man126.jpg, cue_3.jpg,3,0.889152966,1
3,1,105,2,15,1,6, man016.jpg, cue_1.jpg,1,1.717696642,1
3,1,106,2,16,2,261, man460.jpg, cue_2.jpg,2,0.458874564,1
3,1,107,2,17,1,250, man436.jpg, cue_1.jpg,1,0.506690864,1
3,1,108,2,18,3,40, man068.jpg, cue_3.jpg,3,0.401091799,1
3,1,109,2,19,1,256, man447.jpg, cue_1.jpg,1,0.280208377,1
3,1,110,2,20,1,219, man378.jpg, cue_1.jpg,1,0.534507937,1
3,1,111,2,21,3,65, man104.jpg, cue_3.jpg,3,0.273712644,1
3,1,112,2,22,2,166, man276.jpg, cue_2.jpg,2,0.205763913,1
3,1,113,2,23,3,239, man421.jpg, cue_3.jpg,3,0.391285024,1
3,1,114,2,24,3,187, man315.jpg, cue_3.jpg,3,0.236679461,1
3,1,115,2,25,2,164, man273.jpg, cue_2.jpg,2,0.446239595,1
3,1,116,2,26,3,25, man047.jpg, cue_3.jpg,3,0.32473632,1
3,1,117,2,27,3,86, man131.jpg, cue_3.jpg,3,0.401948457,1
3,1,118,2,28,1,107, man165.jpg, cue_1.jpg,1,0.288540626,1
3,1,119,2,29,2,96, man149.jpg, cue_2.jpg,2,0.289667487,1
3,1,120,2,30,3,23, man044.jpg, cue_3.jpg,3,0.413036049,1
3,1,121,2,31,3,33, man060.jpg, cue_3.jpg,3,0.325576306,1
3,1,122,2,32,3,144, man240.jpg, cue_3.jpg,3,0.422635012,1
3,1,123,2,33,2,70, man111.jpg, cue_2.jpg,2,0.517017991,1
3,1,124,2,34,3,199, man341.jpg, cue_3.jpg,3,1.58261719,1
3,1,125,2,35,1,252, man439.jpg, cue_1.jpg,1,0.411621485,1
3,1,126,2,36,2,116, man179.jpg, cue_2.jpg,2,0.464674069,1
3,1,127,2,37,3,237, man416.jpg, cue_3.jpg,3,0.345174823,1
3,1,128,2,38,2,122, man189.jpg, cue_2.jpg,2,0.628048517,1
3,1,129,2,39,3,45, man076.jpg, cue_3.jpg,3,0.747897837,1
3,1,130,2,40,1,230, man403.jpg, cue_1.jpg,1,0.370107818,1
3,1,131,2,41,2,171, man282.jpg, cue_2.jpg,2,0.911884314,1
3,1,132,2,42,1,15, man032.jpg, cue_1.jpg,1,0.74458683,1
3,1,133,2,43,1,202, man350.jpg, cue_1.jpg,1,0.295131466,1
3,1,134,2,44,1,248, man433.jpg, cue_1.jpg,1,0.346213392,1
3,1,135,2,45,1,173, man287.jpg, cue_1.jpg,1,1.035161613,1
3,1,136,2,46,3,80, man124.jpg, cue_3.jpg,3,0.356537249,1
3,1,137,2,47,1,260, man459.jpg, cue_1.jpg,1,0.984538943,1
3,1,138,2,48,2,269, man468.jpg, cue_2.jpg,2,0.596657451,1
3,1,139,2,49,1,131, man205.jpg, cue_1.jpg,1,0.459834214,1
3,1,140,2,50,1,259, man453.jpg, cue_1.jpg,1,0.803982971,1
3,1,141,2,51,3,90, man137.jpg, cue_3.jpg,3,0.373028646,1
3,1,142,2,52,2,156, man257.jpg, cue_2.jpg,2,0.42449388,1
3,1,143,2,53,1,8, man019.jpg, cue_1.jpg,1,0.239896071,1
3,1,144,2,54,1,60, man096.jpg, cue_1.jpg,1,0.618017852,1
3,1,145,2,55,3,242, man424.jpg, cue_3.jpg,3,0.414748277,1
3,1,146,2,56,3,234, man412.jpg, cue_3.jpg,3,0.868943413,1
3,1,147,2,57,2,99, man155.jpg, cue_2.jpg,2,0.515766951,1
3,1,148,2,58,1,42, man071.jpg, cue_1.jpg,1,1.51567235,1
3,1,149,2,59,2,133, man207.jpg, cue_2.jpg,2,0.822804449,1
3,1,150,2,60,3,20, man040.jpg, cue_3.jpg,3,0.421014313,1
3,1,151,2,61,3,142, man234.jpg, cue_3.jpg,3,0.487882435,1
3,1,152,2,62,3,22, man042.jpg, cue_3.jpg,3,0.490792119,1
3,1,153,2,63,1,54, man089.jpg, cue_1.jpg,1,0.32619858,1
3,1,154,2,64,3,71, man112.jpg, cue_3.jpg,3,0.400800665,1
3,1,155,2,65,3,188, man316.jpg, cue_3.jpg,3,0.525049472,1
3,1,156,2,66,1,191, man328.jpg, cue_1.jpg,1,0.648016605,1
3,1,157,2,67,2,258, man451.jpg, cue_2.jpg,2,0.286299043,1
3,1,158,2,68,2,26, man048.jpg, cue_2.jpg,2,0.635185886,1
3,1,159,2,69,2,226, man390.jpg, cue_2.jpg,2,0.644027001,1
3,1,160,2,70,2,161, man267.jpg, cue_2.jpg,2,0.52872219,1
3,1,161,2,71,2,172, man283.jpg, cue_2.jpg,2,0.300051723,1
3,1,162,2,72,3,208, man358.jpg, cue_3.jpg,3,1.496621421,1
3,1,163,2,73,3,18, man036.jpg, cue_3.jpg,3,0.342950006,1
3,1,164,2,74,1,143, man237.jpg, cue_1.jpg,1,0.251640001,1
3,1,165,2,75,1,205, man354.jpg, cue_1.jpg,1,0.354665094,1
3,1,166,2,76,3,79, man123.jpg, cue_3.jpg,3,1.42794347,1
3,1,167,2,77,2,108, man166.jpg, cue_2.jpg,2,0.383506642,1
3,1,168,2,78,2,149, man247.jpg, cue_2.jpg,2,0.471377173,1
3,1,169,2,79,3,119, man186.jpg, cue_3.jpg,3,0.462330429,1
3,1,170,2,80,3,32, man059.jpg, cue_3.jpg,3,0.821007817,1
3,1,171,2,81,2,267, man466.jpg, cue_2.jpg,2,0.812904225,1
3,1,172,2,82,2,101, man157.jpg, cue_2.jpg,2,0.772040092,1
3,1,173,2,83,3,145, man242.jpg, cue_3.jpg,3,0.675072787,1
3,1,174,2,84,2,240, man422.jpg, cue_2.jpg,2,1.046131486,1
3,1,175,2,85,2,28, man052.jpg, cue_2.jpg,2,0.37497186,1
3,1,176,2,86,2,204, man352.jpg, cue_2.jpg,2,0.360706093,1
3,1,177,2,87,1,113, man172.jpg, cue_1.jpg,1,0.945998184,1
3,1,178,2,88,2,130, man203.jpg, cue_2.jpg,2,0.447564773,1
3,1,179,2,89,1,222, man383.jpg, cue_1.jpg,1,0.446064397,1
3,1,180,2,90,1,103, man160.jpg, cue_1.jpg,1,1.329419452,1
3,1,181,3,1,3,40, man068.jpg, cue_3.jpg,3,0.079015413,1
3,1,182,3,2,2,108, man166.jpg, cue_2.jpg,2,0.605152397,1
3,1,183,3,3,3,86, man131.jpg, cue_3.jpg,3,0.494353473,1
3,1,184,3,4,2,226, man390.jpg, cue_2.jpg,2,0.833915563,1
3,1,185,3,5,1,143, man237.jpg, cue_1.jpg,1,0.409155627,1
3,1,186,3,6,1,259, man453.jpg, cue_1.jpg,1,0.346998767,1
3,1,187,3,7,2,261, man460.jpg, cue_2.jpg,2,0.488492917,1
3,1,188,3,8,2,249, man434.jpg, cue_2.jpg,2,0.317670744,1
3,1,189,3,9,2,172, man283.jpg, cue_2.jpg,2,0.189165764,1
3,1,190,3,10,1,6, man016.jpg, cue_1.jpg,1,0.257613351,1
3,1,191,3,11,1,205, man354.jpg, cue_1.jpg,1,0.395403158,1
3,1,192,3,12,2,26, man048.jpg, cue_2.jpg,2,0.218638609,1
3,1,193,3,13,3,25, man047.jpg, cue_3.jpg,3,0.319120142,1
3,1,194,3,14,1,260, man459.jpg, cue_1.jpg,1,0.363781508,1
3,1,195,3,15,1,113, man172.jpg, cue_1.jpg,1,0.242098154,1
3,1,196,3,16,3,188, man316.jpg, cue_3.jpg,3,0.329262387,1
3,1,197,3,17,1,103, man160.jpg, cue_1.jpg,1,0.199115426,1
3,1,198,3,18,3,187, man315.jpg, cue_3.jpg,3,0.324334485,1
3,1,199,3,19,3,139, man223.jpg, cue_3.jpg,3,0.127502385,1
3,1,200,3,20,3,22, man042.jpg, cue_3.jpg,3,0.179794116,1
3,1,201,3,21,3,199, man341.jpg, cue_3.jpg,3,0.451613851,1
3,1,202,3,22,3,33, man060.jpg, cue_3.jpg,3,0.294360303,1
3,1,203,3,23,3,65, man104.jpg, cue_3.jpg,3,0.245285887,1
3,1,204,3,24,2,70, man111.jpg, cue_2.jpg,2,0.415396548,1
3,1,205,3,25,3,239, man421.jpg, cue_3.jpg,3,0.289252676,1
3,1,206,3,26,2,166, man276.jpg, cue_2.jpg,2,0.269163156,1
3,1,207,3,27,2,204, man352.jpg, cue_2.jpg,2,0.372079145,1
3,1,208,3,28,2,258, man451.jpg, cue_2.jpg,2,0.276142027,1
3,1,209,3,29,3,79, man123.jpg, cue_3.jpg,3,0.258195803,1
3,1,210,3,30,3,208, man358.jpg, cue_3.jpg,3,0.256830159,1
3,1,211,3,31,1,54, man089.jpg, cue_1.jpg,1,0.25450649,1
3,1,212,3,32,2,200, man345.jpg, cue_2.jpg,2,0.174037566,1
3,1,213,3,33,1,173, man287.jpg, cue_1.jpg,1,0.37016313,1
3,1,214,3,34,2,240, man422.jpg, cue_2.jpg,2,0.165224744,1
3,1,215,3,35,2,38, man066.jpg, cue_2.jpg,2,0.247312421,1
3,1,216,3,36,2,130, man203.jpg, cue_2.jpg,2,0.322426358,1
3,1,217,3,37,3,90, man137.jpg, cue_3.jpg,3,0.327662957,1
3,1,218,3,38,2,116, man179.jpg, cue_2.jpg,2,0.287733406,1
3,1,219,3,39,3,71, man112.jpg, cue_3.jpg,3,0.319866759,1
3,1,220,3,40,2,27, man050.jpg, cue_2.jpg,2,0.344985507,1
3,1,221,3,41,1,36, man063.jpg, cue_1.jpg,1,0.293641927,1
3,1,222,3,42,2,149, man247.jpg, cue_2.jpg,2,0.294610052,1
3,1,223,3,43,1,222, man383.jpg, cue_1.jpg,1,0.30931786,1
3,1,224,3,44,3,32, man059.jpg, cue_3.jpg,3,0.267820757,1
3,1,225,3,45,2,263, man462.jpg, cue_2.jpg,2,0.207119884,1
3,1,226,3,46,2,28, man052.jpg, cue_2.jpg,2,0.136460942,1
3,1,227,3,47,1,191, man328.jpg, cue_1.jpg,1,0.29145064,1
3,1,228,3,48,2,161, man267.jpg, cue_2.jpg,2,0.160117808,1
3,1,229,3,49,3,142, man234.jpg, cue_3.jpg,3,0.148542085,1
3,1,230,3,50,2,269, man468.jpg, cue_2.jpg,2,0.334016213,1
3,1,231,3,51,1,235, man413.jpg, cue_1.jpg,1,0.205499444,1
3,1,232,3,52,1,256, man447.jpg, cue_1.jpg,1,0.492206547,1
3,1,233,3,53,2,164, man273.jpg, cue_2.jpg,2,0.371630606,1
3,1,234,3,54,2,267, man466.jpg, cue_2.jpg,2,0.326075262,1
3,1,235,3,55,1,92, man139.jpg, cue_1.jpg,1,0.312735833,1
3,1,236,3,56,3,237, man416.jpg, cue_3.jpg,3,0.216007549,1
3,1,237,3,57,2,156, man257.jpg, cue_2.jpg,2,0.15822864,1
3,1,238,3,58,3,5, man010.jpg, cue_3.jpg,3,0.197865977,1
3,1,239,3,59,3,82, man126.jpg, cue_3.jpg,3,0.218105926,1
3,1,240,3,60,1,248, man433.jpg, cue_1.jpg,1,0.306171065,1
3,1,241,3,61,2,101, man157.jpg, cue_2.jpg,2,0.279912644,1
3,1,242,3,62,1,252, man439.jpg, cue_1.jpg,1,0.255747323,1
3,1,243,3,63,1,42, man071.jpg, cue_1.jpg,1,0.285305642,1
3,1,244,3,64,1,230, man403.jpg, cue_1.jpg,1,0.400288426,1
3,1,245,3,65,3,144, man240.jpg, cue_3.jpg,3,0.305957576,1
3,1,246,3,66,1,15, man032.jpg, cue_1.jpg,1,0.251128708,1
3,1,247,3,67,3,145, man242.jpg, cue_3.jpg,3,0.239217719,1
3,1,248,3,68,2,133, man207.jpg, cue_2.jpg,2,0.262967021,1
3,1,249,3,69,2,96, man149.jpg, cue_2.jpg,2,0.188297788,1
3,1,250,3,70,3,119, man186.jpg, cue_3.jpg,3,0.233190759,1
3,1,251,3,71,1,250, man436.jpg, cue_1.jpg,1,0.329653527,1
3,1,252,3,72,1,219, man378.jpg, cue_1.jpg,1,0.140081995,1
3,1,253,3,73,3,45, man076.jpg, cue_3.jpg,3,0.339862057,1
3,1,254,3,74,1,131, man205.jpg, cue_1.jpg,1,0.947700979,1
3,1,255,3,75,1,8, man019.jpg, cue_1.jpg,1,0.127346556,1
3,1,256,3,76,1,243, man427.jpg, cue_1.jpg,1,1.180621838,1
3,1,257,3,77,3,20, man040.jpg, cue_3.jpg,3,0.329664336,1
3,1,258,3,78,2,171, man282.jpg, cue_2.jpg,2,0.788734089,1
3,1,259,3,79,1,107, man165.jpg, cue_1.jpg,1,0.377455139,1
3,1,260,3,80,1,202, man350.jpg, cue_1.jpg,1,0.239726367,1
3,1,261,3,81,2,99, man155.jpg, cue_2.jpg,2,0.190900522,1
3,1,262,3,82,3,18, man036.jpg, cue_3.jpg,3,0.182555761,1
3,1,263,3,83,3,23, man044.jpg, cue_3.jpg,3,0.690728562,1
3,1,264,3,84,1,247, man431.jpg, cue_1.jpg,1,0.382457034,1
3,1,265,3,85,3,234, man412.jpg, cue_3.jpg,3,0.255059358,1
3,1,266,3,86,3,80, man124.jpg, cue_3.jpg,3,0.126162284,1
3,1,267,3,87,3,242, man424.jpg, cue_3.jpg,3,0.7153569,1
3,1,268,3,88,1,60, man096.jpg, cue_1.jpg,1,0.35557187,1
3,1,269,3,89,1,193, man332.jpg, cue_1.jpg,1,0.170441393,1
3,1,270,3,90,2,122, man189.jpg, cue_2.jpg,2,0.35685945,1
3,1,271,4,1,3,45, man076.jpg, cue_3.jpg,3,0.548880006,1
3,1,272,4,2,1,107, man165.jpg, cue_1.jpg,1,0.494318581,1
3,1,273,4,3,2,226, man390.jpg, cue_2.jpg,2,0.413975942,1
3,1,274,4,4,3,239, man421.jpg, cue_3.jpg,3,0.433428252,1
3,1,275,4,5,1,60, man096.jpg, cue_1.jpg,1,0.229632142,1
3,1,276,4,6,1,143, man237.jpg, cue_1.jpg,1,0.33471814,1
3,1,277,4,7,3,25, man047.jpg, cue_3.jpg,3,0.441638335,1
3,1,278,4,8,2,27, man050.jpg, cue_2.jpg,2,0.369159901,1
3,1,279,4,9,2,26, man048.jpg, cue_2.jpg,2,0.223379427,1
3,1,280,4,10,1,6, man016.jpg, cue_1.jpg,1,0.329781659,1
3,1,281,4,11,2,269, man468.jpg, cue_2.jpg,2,0.277717,1
3,1,282,4,12,2,249, man434.jpg, cue_2.jpg,2,0.268875284,1
3,1,283,4,13,3,65, man104.jpg, cue_3.jpg,3,0.416627724,1
3,1,284,4,14,1,205, man354.jpg, cue_1.jpg,1,0.299897219,1
3,1,285,4,15,1,259, man453.jpg, cue_1.jpg,1,0.327797877,1
3,1,286,4,16,3,144, man240.jpg, cue_3.jpg,3,0.402476749,1
3,1,287,4,17,3,188, man316.jpg, cue_3.jpg,3,0.271879983,1
3,1,288,4,18,2,166, man276.jpg, cue_2.jpg,2,0.261327082,1
3,1,289,4,19,1,173, man287.jpg, cue_1.jpg,1,0.361861425,1
3,1,290,4,20,2,164, man273.jpg, cue_2.jpg,2,0.266112662,1
3,1,291,4,21,3,32, man059.jpg, cue_3.jpg,3,0.277132655,1
3,1,292,4,22,2,240, man422.jpg, cue_2.jpg,2,0.311126008,1
3,1,293,4,23,2,200, man345.jpg, cue_2.jpg,2,0.392085072,1
3,1,294,4,24,1,252, man439.jpg, cue_1.jpg,1,0.857282675,1
3,1,295,4,25,1,36, man063.jpg, cue_1.jpg,1,0.418215723,1
3,1,296,4,26,2,108, man166.jpg, cue_2.jpg,2,0.796803165,1
3,1,297,4,27,1,250, man436.jpg, cue_1.jpg,1,0.327583238,1
3,1,298,4,28,1,260, man459.jpg, cue_1.jpg,1,0.379273632,1
3,1,299,4,29,1,103, man160.jpg, cue_1.jpg,1,0.416641037,1
3,1,300,4,30,2,99, man155.jpg, cue_2.jpg,2,0.236401691,1
3,1,301,4,31,2,156, man257.jpg, cue_2.jpg,2,0.306497384,1
3,1,302,4,32,1,219, man378.jpg, cue_1.jpg,1,0.313225328,1
3,1,303,4,33,2,28, man052.jpg, cue_2.jpg,2,0.274481815,1
3,1,304,4,34,2,122, man189.jpg, cue_2.jpg,2,0.254061179,1
3,1,305,4,35,2,133, man207.jpg, cue_2.jpg,2,0.431013011,1
3,1,306,4,36,1,230, man403.jpg, cue_1.jpg,1,0.313246115,1
3,1,307,4,37,3,234, man412.jpg, cue_3.jpg,3,0.257684925,1
3,1,308,4,38,1,15, man032.jpg, cue_1.jpg,1,0.544980362,1
3,1,309,4,39,3,145, man242.jpg, cue_3.jpg,3,0.339282522,1
3,1,310,4,40,1,248, man433.jpg, cue_1.jpg,1,0.407650502,1
3,1,311,4,41,3,237, man416.jpg, cue_3.jpg,3,0.208450119,1
3,1,312,4,42,3,242, man424.jpg, cue_3.jpg,3,0.419490108,1
3,1,313,4,43,2,204, man352.jpg, cue_2.jpg,2,0.311436934,1
3,1,314,4,44,1,247, man431.jpg, cue_1.jpg,1,0.325084245,1
3,1,315,4,45,2,261, man460.jpg, cue_2.jpg,2,0.385725083,1
3,1,316,4,46,2,96, man149.jpg, cue_2.jpg,2,0.3068951,1
3,1,317,4,47,1,92, man139.jpg, cue_1.jpg,1,0.368027697,1
3,1,318,4,48,2,101, man157.jpg, cue_2.jpg,2,0.393670212,1
3,1,319,4,49,2,130, man203.jpg, cue_2.jpg,2,0.351481939,1
3,1,320,4,50,3,5, man010.jpg, cue_3.jpg,3,0.531024544,1
3,1,321,4,51,2,149, man247.jpg, cue_2.jpg,2,0.387396747,1
3,1,322,4,52,2,171, man282.jpg, cue_2.jpg,2,0.571252109,1
3,1,323,4,53,2,38, man066.jpg, cue_2.jpg,2,0.63233984,1
3,1,324,4,54,3,22, man042.jpg, cue_3.jpg,3,0.357932425,1
3,1,325,4,55,3,208, man358.jpg, cue_3.jpg,3,0.332140051,1
3,1,326,4,56,1,42, man071.jpg, cue_1.jpg,1,0.419883788,1
3,1,327,4,57,1,202, man350.jpg, cue_1.jpg,1,0.248057849,1
3,1,328,4,58,3,18, man036.jpg, cue_3.jpg,3,0.34198145,1
3,1,329,4,59,3,199, man341.jpg, cue_3.jpg,3,0.364445112,1
3,1,330,4,60,3,142, man234.jpg, cue_3.jpg,3,0.45353494,1
3,1,331,4,61,3,139, man223.jpg, cue_3.jpg,3,0.336435666,1
3,1,332,4,62,2,70, man111.jpg, cue_2.jpg,2,0.330885365,1
3,1,333,4,63,1,131, man205.jpg, cue_1.jpg,1,0.30238302,1
3,1,334,4,64,3,82, man126.jpg, cue_3.jpg,3,0.372964357,1
3,1,335,4,65,2,267, man466.jpg, cue_2.jpg,2,0.549718531,1
3,1,336,4,66,3,71, man112.jpg, cue_3.jpg,3,0.386411446,1
3,1,337,4,67,2,263, man462.jpg, cue_2.jpg,2,0.45277381,1
3,1,338,4,68,1,54, man089.jpg, cue_1.jpg,1,0.564714968,1
3,1,339,4,69,3,80, man124.jpg, cue_3.jpg,3,0.302607061,1
3,1,340,4,70,3,187, man315.jpg, cue_3.jpg,3,0.218415586,1
3,1,341,4,71,1,235, man413.jpg, cue_1.jpg,1,0.374500675,1
3,1,342,4,72,2,172, man283.jpg, cue_2.jpg,2,0.394767269,1
3,1,343,4,73,1,243, man427.jpg, cue_1.jpg,1,0.307035197,1
3,1,344,4,74,1,191, man328.jpg, cue_1.jpg,1,0.344994288,1
3,1,345,4,75,3,79, man123.jpg, cue_3.jpg,3,0.376217992,1
3,1,346,4,76,1,256, man447.jpg, cue_1.jpg,1,0.275590161,1
3,1,347,4,77,3,33, man060.jpg, cue_3.jpg,3,0.294300019,1
3,1,348,4,78,3,86, man131.jpg, cue_3.jpg,3,0.330924764,1
3,1,349,4,79,2,161, man267.jpg, cue_2.jpg,2,0.543588406,1
3,1,350,4,80,3,20, man040.jpg, cue_3.jpg,3,0.254590591,1
3,1,351,4,81,3,23, man044.jpg, cue_3.jpg,3,0.194378511,1
3,1,352,4,82,1,222, man383.jpg, cue_1.jpg,1,0.336504412,1
3,1,353,4,83,1,193, man332.jpg, cue_1.jpg,1,0.351701948,1
3,1,354,4,84,2,116, man179.jpg, cue_2.jpg,2,1.227600542,1
3,1,355,4,85,3,90, man137.jpg, cue_3.jpg,3,0.408700758,1
3,1,356,4,86,2,258, man451.jpg, cue_2.jpg,2,0.290426989,1
3,1,357,4,87,1,8, man019.jpg, cue_1.jpg,1,0.287302588,1
3,1,358,4,88,1,113, man172.jpg, cue_1.jpg,1,0.26702205,1
3,1,359,4,89,3,40, man068.jpg, cue_3.jpg,3,0.311177197,1
3,1,360,4,90,3,119, man186.jpg, cue_3.jpg,3,0.345177902,1
4,2,1,1,1,2,257, man450.jpg, cue_2.jpg,2,0.951686717,1
4,2,2,1,2,3,25, man047.jpg, cue_3.jpg,3,0.813394611,1
4,2,3,1,3,1,163, man271.jpg, cue_1.jpg,1,0.890510584,1
4,2,4,1,4,3,195, man336.jpg, cue_3.jpg,3,1.117263745,1
4,2,5,1,5,1,205, man354.jpg, cue_1.jpg,1,0.879549146,1
4,2,6,1,6,3,12, man027.jpg, cue_3.jpg,3,1.170157995,1
4,2,7,1,7,3,182, man310.jpg, cue_3.jpg,3,1.050247195,1
4,2,8,1,8,1,261, man460.jpg, cue_1.jpg,1,0.992680316,1
4,2,9,1,9,2,51, man085.jpg, cue_2.jpg,2,0.949492039,1
4,2,10,1,10,2,176, man298.jpg, cue_2.jpg,2,1.131273991,1
4,2,11,1,11,2,95, man145.jpg, cue_2.jpg,3,1.065922211,0
4,2,12,1,12,1,4, man007.jpg, cue_1.jpg,1,1.051445974,1
4,2,13,1,13,2,203, man351.jpg, cue_2.jpg,3,0.635763735,0
4,2,14,1,14,1,225, man389.jpg, cue_1.jpg,3,1.248526803,0
4,2,15,1,15,2,250, man436.jpg, cue_2.jpg,2,0.965478494,1
4,2,16,1,16,3,96, man149.jpg, cue_3.jpg,3,0.989263297,1
4,2,17,1,17,3,154, man253.jpg, cue_3.jpg,3,0.772813582,1
4,2,18,1,18,3,37, man064.jpg, cue_3.jpg,3,1.181346188,1
4,2,19,1,19,3,143, man237.jpg, cue_3.jpg,3,0.959868836,1
4,2,20,1,20,2,107, man165.jpg, cue_2.jpg,2,0.645683123,1
4,2,21,1,21,3,206, man355.jpg, cue_3.jpg,3,1.053621816,1
4,2,22,1,22,1,21, man041.jpg, cue_1.jpg,3,0.930274396,0
4,2,23,1,23,3,78, man122.jpg, cue_3.jpg,3,0.790767655,1
4,2,24,1,24,1,184, man312.jpg, cue_1.jpg,1,1.027530936,1
4,2,25,1,25,1,239, man421.jpg, cue_1.jpg,3,0.85748328,0
4,2,26,1,26,3,229, man401.jpg, cue_3.jpg,3,1.038783819,1
4,2,27,1,27,2,136, man212.jpg, cue_2.jpg,3,0.740812937,0
4,2,28,1,28,3,33, man060.jpg, cue_3.jpg,3,1.450564678,1
4,2,29,1,29,1,187, man315.jpg, cue_1.jpg,1,1.023155934,1
4,2,30,1,30,2,65, man104.jpg, cue_2.jpg,2,0.941348257,1
4,2,31,1,31,1,189, man322.jpg, cue_1.jpg,3,0.824691443,0
4,2,32,1,32,2,165, man275.jpg, cue_2.jpg,2,0.937382697,1
4,2,33,1,33,2,63, man101.jpg, cue_2.jpg,2,0.980178904,1
4,2,34,1,34,2,125, man193.jpg, cue_2.jpg,3,0.572411589,0
4,2,35,1,35,1,6, man016.jpg, cue_1.jpg,1,0.98987871,1
4,2,36,1,36,3,160, man262.jpg, cue_3.jpg,3,0.691460688,1
4,2,37,1,37,1,36, man063.jpg, cue_1.jpg,1,0.87994949,1
4,2,38,1,38,2,34, man061.jpg, cue_2.jpg,1,0.791702532,0
4,2,39,1,39,3,61, man099.jpg, cue_3.jpg,3,1.275262088,1
4,2,40,1,40,3,42, man071.jpg, cue_3.jpg,1,0.987809285,0
4,2,41,1,41,2,108, man166.jpg, cue_2.jpg,2,0.985702149,1
4,2,42,1,42,3,88, man135.jpg, cue_3.jpg,2,0.79852638,0
4,2,43,1,43,2,251, man437.jpg, cue_2.jpg,3,1.113629211,0
4,2,44,1,44,1,44, man075.jpg, cue_1.jpg,1,0.968875659,1
4,2,45,1,45,3,259, man453.jpg, cue_3.jpg,2,0.941487323,0
4,2,46,1,46,3,122, man189.jpg, cue_3.jpg,3,1.411182401,1
4,2,47,1,47,1,226, man390.jpg, cue_1.jpg,1,1.500556221,1
4,2,48,1,48,1,166, man276.jpg, cue_1.jpg,1,1.145147459,1
4,2,49,1,49,1,241, man423.jpg, cue_1.jpg,3,0.793482713,0
4,2,50,1,50,1,17, man035.jpg, cue_1.jpg,1,1.13274633,1
4,2,51,1,51,1,67, man107.jpg, cue_1.jpg,2,1.655486632,0
4,2,52,1,52,3,201, man348.jpg, cue_3.jpg,3,1.297206014,1
4,2,53,1,53,3,105, man162.jpg, cue_3.jpg,3,0.481293963,1
4,2,54,1,54,2,11, man025.jpg, cue_2.jpg,2,0.851413427,1
4,2,55,1,55,1,256, man447.jpg, cue_1.jpg,1,0.780623368,1
4,2,56,1,56,3,74, man117.jpg, cue_3.jpg,3,0.657955362,1
4,2,57,1,57,3,19, man039.jpg, cue_3.jpg,3,0.587320903,1
4,2,58,1,58,2,23, man044.jpg, cue_2.jpg,2,0.600162162,1
4,2,59,1,59,2,175, man291.jpg, cue_2.jpg,2,0.954114947,1
4,2,60,1,60,1,72, man114.jpg, cue_1.jpg,1,1.172518309,1
4,2,61,1,61,1,27, man050.jpg, cue_1.jpg,1,0.566100124,1
4,2,62,1,62,2,212, man365.jpg, cue_2.jpg,3,0.603848506,0
4,2,63,1,63,2,245, man429.jpg, cue_2.jpg,3,1.354677785,0
4,2,64,1,64,2,197, man338.jpg, cue_2.jpg,2,1.324036997,1
4,2,65,1,65,3,174, man289.jpg, cue_3.jpg,3,1.162427275,1
4,2,66,1,66,1,98, man154.jpg, cue_1.jpg,3,0.865269172,0
4,2,67,1,67,3,68, man109.jpg, cue_3.jpg,3,0.520472564,1
4,2,68,1,68,2,114, man174.jpg, cue_2.jpg,3,0.769783521,0
4,2,69,1,69,3,220, man380.jpg, cue_3.jpg,3,1.032826262,1
4,2,70,1,70,2,82, man126.jpg, cue_2.jpg,2,0.893616834,1
4,2,71,1,71,2,198, man339.jpg, cue_2.jpg,3,1.539162953,0
4,2,72,1,72,2,181, man309.jpg, cue_2.jpg,3,1.429880324,0
4,2,73,1,73,2,38, man066.jpg, cue_2.jpg,1,0.73016792,0
4,2,74,1,74,2,104, man161.jpg, cue_2.jpg,2,0.658421984,1
4,2,75,1,75,2,101, man157.jpg, cue_2.jpg,3,1.062370049,0
4,2,76,1,76,3,150, man248.jpg, cue_3.jpg,1,0.694154631,0
4,2,77,1,77,3,52, man086.jpg, cue_3.jpg,3,0.887698726,1
4,2,78,1,78,1,218, man377.jpg, cue_1.jpg,1,0.598927872,1
4,2,79,1,79,2,132, man206.jpg, cue_2.jpg,3,1.467023405,0
4,2,80,1,80,3,223, man386.jpg, cue_3.jpg,3,0.66680432,1
4,2,81,1,81,3,269, man468.jpg, cue_3.jpg,3,1.30890768,1
4,2,82,1,82,1,26, man048.jpg, cue_1.jpg,1,1.35370156,1
4,2,83,1,83,2,2, man004.jpg, cue_2.jpg,1,0.579486408,0
4,2,84,1,84,3,178, man301.jpg, cue_3.jpg,3,1.108218004,1
4,2,85,1,85,1,131, man205.jpg, cue_1.jpg,1,1.033874647,1
4,2,86,1,86,1,70, man111.jpg, cue_1.jpg,1,0.56981672,1
4,2,87,1,87,1,112, man171.jpg, cue_1.jpg,1,0.99576314,1
4,2,88,1,88,1,156, man257.jpg, cue_1.jpg,1,1.674463331,1
4,2,89,1,89,1,7, man017.jpg, cue_1.jpg,1,0.528669478,1
4,2,90,1,90,1,228, man396.jpg, cue_1.jpg,3,0.67566817,0
4,2,91,2,1,3,154, man253.jpg, cue_3.jpg,3,1.459430509,1
4,2,92,2,2,3,74, man117.jpg, cue_3.jpg,3,0.682422128,1
4,2,93,2,3,2,203, man351.jpg, cue_2.jpg,3,1.74863342,0
4,2,94,2,4,2,176, man298.jpg, cue_2.jpg,2,1.3708297,1
4,2,95,2,5,1,17, man035.jpg, cue_1.jpg,1,1.001362162,1
4,2,96,2,6,3,160, man262.jpg, cue_3.jpg,3,1.631807048,1
4,2,97,2,7,3,229, man401.jpg, cue_3.jpg,3,0.970523009,1
4,2,98,2,8,2,104, man161.jpg, cue_2.jpg,2,0.529820299,1
4,2,99,2,9,3,220, man380.jpg, cue_3.jpg,3,1.520195849,1
4,2,100,2,10,1,26, man048.jpg, cue_1.jpg,1,0.676164104,1
4,2,101,2,11,1,27, man050.jpg, cue_1.jpg,1,1.335490364,1
4,2,102,2,12,1,21, man041.jpg, cue_1.jpg,1,0.935478784,1
4,2,103,2,13,1,112, man171.jpg, cue_1.jpg,1,1.468960716,1
4,2,104,2,14,3,105, man162.jpg, cue_3.jpg,3,1.635566729,1
4,2,105,2,15,3,25, man047.jpg, cue_3.jpg,3,1.264117667,1
4,2,106,2,16,2,197, man338.jpg, cue_2.jpg,2,0.737825068,1
4,2,107,2,17,1,44, man075.jpg, cue_1.jpg,3,1.358221032,0
4,2,108,2,18,3,37, man064.jpg, cue_3.jpg,3,0.823769486,1
4,2,109,2,19,3,206, man355.jpg, cue_3.jpg,3,0.547107449,1
4,2,110,2,20,3,68, man109.jpg, cue_3.jpg,2,1.027254122,0
4,2,111,2,21,2,34, man061.jpg, cue_2.jpg,3,0.819153163,0
4,2,112,2,22,1,7, man017.jpg, cue_1.jpg,1,0.568502941,1
4,2,113,2,23,1,261, man460.jpg, cue_1.jpg,1,0.556559515,1
4,2,114,2,24,1,67, man107.jpg, cue_1.jpg,1,0.673704481,1
4,2,115,2,25,2,38, man066.jpg, cue_2.jpg,3,0.501542196,0
4,2,116,2,26,2,101, man157.jpg, cue_2.jpg,2,0.896319778,1
4,2,117,2,27,3,12, man027.jpg, cue_3.jpg,3,0.406822107,1
4,2,118,2,28,1,156, man257.jpg, cue_1.jpg,1,0.570776631,1
4,2,119,2,29,2,251, man437.jpg, cue_2.jpg,2,0.769860813,1
4,2,120,2,30,3,143, man237.jpg, cue_3.jpg,3,0.89291464,1
4,2,121,2,31,1,218, man377.jpg, cue_1.jpg,2,0.681052033,0
4,2,122,2,32,1,166, man276.jpg, cue_1.jpg,1,0.777555704,1
4,2,123,2,33,1,131, man205.jpg, cue_1.jpg,3,0.631253432,0
4,2,124,2,34,2,125, man193.jpg, cue_2.jpg,2,0.598260813,1
4,2,125,2,35,2,114, man174.jpg, cue_2.jpg,2,0.498099017,1
4,2,126,2,36,2,175, man291.jpg, cue_2.jpg,3,0.731708809,0
4,2,127,2,37,3,150, man248.jpg, cue_3.jpg,3,0.456704221,1
4,2,128,2,38,2,165, man275.jpg, cue_2.jpg,3,0.591064682,0
4,2,129,2,39,1,70, man111.jpg, cue_1.jpg,1,0.785878046,1
4,2,130,2,40,3,259, man453.jpg, cue_3.jpg,3,1.523195059,1
4,2,131,2,41,1,163, man271.jpg, cue_1.jpg,1,1.058866723,1
4,2,132,2,42,2,108, man166.jpg, cue_2.jpg,2,0.399683046,1
4,2,133,2,43,3,52, man086.jpg, cue_3.jpg,3,0.741734737,1
4,2,134,2,44,3,61, man099.jpg, cue_3.jpg,1,0.517476119,0
4,2,135,2,45,2,212, man365.jpg, cue_2.jpg,3,0.530784992,0
4,2,136,2,46,2,250, man436.jpg, cue_2.jpg,3,0.677346,0
4,2,137,2,47,2,82, man126.jpg, cue_2.jpg,2,1.0355518,1
4,2,138,2,48,2,132, man206.jpg, cue_2.jpg,2,0.875934653,1
4,2,139,2,49,3,88, man135.jpg, cue_3.jpg,3,0.358788779,1
4,2,140,2,50,2,107, man165.jpg, cue_2.jpg,2,0.755095089,1
4,2,141,2,51,3,33, man060.jpg, cue_3.jpg,3,0.589323471,1
4,2,142,2,52,1,36, man063.jpg, cue_1.jpg,1,0.833237784,1
4,2,143,2,53,1,228, man396.jpg, cue_1.jpg,1,1.392026846,1
4,2,144,2,54,3,223, man386.jpg, cue_3.jpg,3,0.881309696,1
4,2,145,2,55,3,201, man348.jpg, cue_3.jpg,3,0.766258175,1
4,2,146,2,56,2,257, man450.jpg, cue_2.jpg,2,1.31329076,1
4,2,147,2,57,1,184, man312.jpg, cue_1.jpg,1,0.517549005,1
4,2,148,2,58,2,198, man339.jpg, cue_2.jpg,2,0.456352981,1
4,2,149,2,59,2,245, man429.jpg, cue_2.jpg,2,0.85460991,1
4,2,150,2,60,2,136, man212.jpg, cue_2.jpg,2,0.867971509,1
4,2,151,2,61,3,269, man468.jpg, cue_3.jpg,3,1.19124937,1
4,2,152,2,62,2,23, man044.jpg, cue_2.jpg,2,1.160132081,1
4,2,153,2,63,1,239, man421.jpg, cue_1.jpg,1,0.995096038,1
4,2,154,2,64,3,182, man310.jpg, cue_3.jpg,3,0.43577747,1
4,2,155,2,65,1,226, man390.jpg, cue_1.jpg,1,1.435876967,1
4,2,156,2,66,1,72, man114.jpg, cue_1.jpg,1,0.654974226,1
4,2,157,2,67,1,241, man423.jpg, cue_1.jpg,3,1.270462686,0
4,2,158,2,68,2,11, man025.jpg, cue_2.jpg,2,0.384298288,1
4,2,159,2,69,3,96, man149.jpg, cue_3.jpg,2,1.137171457,0
4,2,160,2,70,1,225, man389.jpg, cue_1.jpg,1,0.683926803,1
4,2,161,2,71,2,95, man145.jpg, cue_2.jpg,2,1.571319627,1
4,2,162,2,72,1,98, man154.jpg, cue_1.jpg,1,1.831380274,1
4,2,163,2,73,3,178, man301.jpg, cue_3.jpg,3,1.157506191,1
4,2,164,2,74,3,78, man122.jpg, cue_3.jpg,3,1.156341631,1
4,2,165,2,75,3,195, man336.jpg, cue_3.jpg,2,0.751201779,0
4,2,166,2,76,3,174, man289.jpg, cue_3.jpg,3,1.292116479,1
4,2,167,2,77,2,181, man309.jpg, cue_2.jpg,2,0.721829073,1
4,2,168,2,78,2,63, man101.jpg, cue_2.jpg,2,0.560480216,1
4,2,169,2,79,1,187, man315.jpg, cue_1.jpg,1,0.605418754,1
4,2,170,2,80,3,42, man071.jpg, cue_3.jpg,3,0.641928627,1
4,2,171,2,81,3,19, man039.jpg, cue_3.jpg,3,0.410137103,1
4,2,172,2,82,2,51, man085.jpg, cue_2.jpg,2,0.702969097,1
4,2,173,2,83,1,189, man322.jpg, cue_1.jpg,1,0.502582806,1
4,2,174,2,84,1,6, man016.jpg, cue_1.jpg,1,0.73450867,1
4,2,175,2,85,1,205, man354.jpg, cue_1.jpg,3,0.543490886,0
4,2,176,2,86,1,4, man007.jpg, cue_1.jpg,1,0.476596578,1
4,2,177,2,87,1,256, man447.jpg, cue_1.jpg,1,0.696410585,1
4,2,178,2,88,2,65, man104.jpg, cue_2.jpg,2,0.651104854,1
4,2,179,2,89,2,2, man004.jpg, cue_2.jpg,2,1.178892123,1
4,2,180,2,90,3,122, man189.jpg, cue_3.jpg,3,0.880144765,1
4,2,181,3,1,3,19, man039.jpg, cue_3.jpg,3,0.465601449,1
4,2,182,3,2,3,229, man401.jpg, cue_3.jpg,3,0.769127406,1
4,2,183,3,3,3,269, man468.jpg, cue_3.jpg,3,0.412908836,1
4,2,184,3,4,3,61, man099.jpg, cue_3.jpg,2,0.540500723,0
4,2,185,3,5,2,114, man174.jpg, cue_2.jpg,2,0.758474645,1
4,2,186,3,6,1,205, man354.jpg, cue_1.jpg,1,1.117048997,1
4,2,187,3,7,1,67, man107.jpg, cue_1.jpg,1,0.428987483,1
4,2,188,3,8,2,63, man101.jpg, cue_2.jpg,2,0.665164074,1
4,2,189,3,9,3,259, man453.jpg, cue_3.jpg,3,0.713393407,1
4,2,190,3,10,2,34, man061.jpg, cue_2.jpg,2,0.88069954,1
4,2,191,3,11,2,181, man309.jpg, cue_2.jpg,2,1.075021379,1
4,2,192,3,12,3,178, man301.jpg, cue_3.jpg,3,0.991784473,1
4,2,193,3,13,3,78, man122.jpg, cue_3.jpg,3,0.345272282,1
4,2,194,3,14,2,176, man298.jpg, cue_2.jpg,2,0.576246454,1
4,2,195,3,15,1,187, man315.jpg, cue_1.jpg,1,0.673262704,1
4,2,196,3,16,2,107, man165.jpg, cue_2.jpg,2,0.633590099,1
4,2,197,3,17,2,136, man212.jpg, cue_2.jpg,2,0.6610604,1
4,2,198,3,18,1,98, man154.jpg, cue_1.jpg,1,0.637722082,1
4,2,199,3,19,1,156, man257.jpg, cue_1.jpg,1,0.555983434,1
4,2,200,3,20,3,33, man060.jpg, cue_3.jpg,3,0.591261126,1
4,2,201,3,21,2,108, man166.jpg, cue_2.jpg,2,0.823883872,1
4,2,202,3,22,2,23, man044.jpg, cue_2.jpg,2,0.928116022,1
4,2,203,3,23,1,72, man114.jpg, cue_1.jpg,1,1.244269188,1
4,2,204,3,24,3,105, man162.jpg, cue_3.jpg,3,0.664979113,1
4,2,205,3,25,2,65, man104.jpg, cue_2.jpg,2,1.271973885,1
4,2,206,3,26,1,256, man447.jpg, cue_1.jpg,1,0.820884127,1
4,2,207,3,27,2,197, man338.jpg, cue_2.jpg,2,0.499864846,1
4,2,208,3,28,1,228, man396.jpg, cue_1.jpg,1,0.725840584,1
4,2,209,3,29,2,104, man161.jpg, cue_2.jpg,2,0.623136315,1
4,2,210,3,30,3,96, man149.jpg, cue_3.jpg,3,0.967615552,1
4,2,211,3,31,2,11, man025.jpg, cue_2.jpg,2,0.61457835,1
4,2,212,3,32,2,245, man429.jpg, cue_2.jpg,2,0.463420088,1
4,2,213,3,33,3,195, man336.jpg, cue_3.jpg,3,0.520773541,1
4,2,214,3,34,1,226, man390.jpg, cue_1.jpg,1,0.567836547,1
4,2,215,3,35,1,184, man312.jpg, cue_1.jpg,1,0.461449656,1
4,2,216,3,36,3,37, man064.jpg, cue_3.jpg,1,0.449109935,0
4,2,217,3,37,3,206, man355.jpg, cue_3.jpg,3,0.750688595,1
4,2,218,3,38,3,88, man135.jpg, cue_3.jpg,3,0.543624565,1
4,2,219,3,39,3,160, man262.jpg, cue_3.jpg,3,1.06598047,1
4,2,220,3,40,2,38, man066.jpg, cue_2.jpg,2,0.483801253,1
4,2,221,3,41,3,150, man248.jpg, cue_3.jpg,3,0.453706795,1
4,2,222,3,42,3,122, man189.jpg, cue_3.jpg,3,0.91787655,1
4,2,223,3,43,3,42, man071.jpg, cue_3.jpg,3,1.57290483,1
4,2,224,3,44,3,154, man253.jpg, cue_3.jpg,3,1.044415143,1
4,2,225,3,45,2,82, man126.jpg, cue_2.jpg,2,1.523537907,1
4,2,226,3,46,1,218, man377.jpg, cue_1.jpg,1,1.718855069,1
4,2,227,3,47,3,182, man310.jpg, cue_3.jpg,3,1.150725516,1
4,2,228,3,48,1,36, man063.jpg, cue_1.jpg,1,0.773968212,1
4,2,229,3,49,3,52, man086.jpg, cue_3.jpg,3,1.148768439,1
4,2,230,3,50,2,132, man206.jpg, cue_2.jpg,2,0.552075415,1
4,2,231,3,51,1,261, man460.jpg, cue_1.jpg,1,0.483538985,1
4,2,232,3,52,1,6, man016.jpg, cue_1.jpg,1,0.575810239,1
4,2,233,3,53,2,257, man450.jpg, cue_2.jpg,2,0.929066799,1
4,2,234,3,54,1,131, man205.jpg, cue_1.jpg,3,0.703300674,0
4,2,235,3,55,3,174, man289.jpg, cue_3.jpg,3,0.976926643,1
4,2,236,3,56,2,2, man004.jpg, cue_2.jpg,2,0.869254793,1
4,2,237,3,57,1,27, man050.jpg, cue_1.jpg,1,0.561797621,1
4,2,238,3,58,3,68, man109.jpg, cue_3.jpg,3,0.825551842,1
4,2,239,3,59,3,143, man237.jpg, cue_3.jpg,3,1.238620374,1
4,2,240,3,60,1,70, man111.jpg, cue_1.jpg,1,1.395997077,1
4,2,241,3,61,2,125, man193.jpg, cue_2.jpg,2,0.917580638,1
4,2,242,3,62,2,203, man351.jpg, cue_2.jpg,2,0.507020561,1
4,2,243,3,63,2,165, man275.jpg, cue_2.jpg,2,0.724281171,1
4,2,244,3,64,1,17, man035.jpg, cue_1.jpg,1,0.699746601,1
4,2,245,3,65,1,7, man017.jpg, cue_1.jpg,1,1.090753528,1
4,2,246,3,66,1,189, man322.jpg, cue_1.jpg,1,0.486976067,1
4,2,247,3,67,3,201, man348.jpg, cue_3.jpg,3,0.7065271,1
4,2,248,3,68,2,198, man339.jpg, cue_2.jpg,2,1.628149542,1
4,2,249,3,69,3,74, man117.jpg, cue_3.jpg,3,0.826781046,1
4,2,250,3,70,1,44, man075.jpg, cue_1.jpg,1,0.682481648,1
4,2,251,3,71,1,225, man389.jpg, cue_1.jpg,1,0.619782841,1
4,2,252,3,72,2,95, man145.jpg, cue_2.jpg,2,0.927334316,1
4,2,253,3,73,1,163, man271.jpg, cue_1.jpg,1,0.750478555,1
4,2,254,3,74,1,4, man007.jpg, cue_1.jpg,1,0.384302858,1
4,2,255,3,75,3,12, man027.jpg, cue_3.jpg,3,0.84374285,1
4,2,256,3,76,3,220, man380.jpg, cue_3.jpg,3,0.855891497,1
4,2,257,3,77,3,25, man047.jpg, cue_3.jpg,3,0.564413893,1
4,2,258,3,78,1,26, man048.jpg, cue_1.jpg,1,1.010430076,1
4,2,259,3,79,2,175, man291.jpg, cue_2.jpg,2,1.900026689,1
4,2,260,3,80,2,212, man365.jpg, cue_2.jpg,1,0.994681524,0
4,2,261,3,81,2,51, man085.jpg, cue_2.jpg,2,0.776403783,1
4,2,262,3,82,1,239, man421.jpg, cue_1.jpg,2,1.445300887,0
4,2,263,3,83,1,166, man276.jpg, cue_1.jpg,1,0.733569676,1
4,2,264,3,84,1,241, man423.jpg, cue_1.jpg,1,0.590281012,1
4,2,265,3,85,2,101, man157.jpg, cue_2.jpg,2,0.517108285,1
4,2,266,3,86,3,223, man386.jpg, cue_3.jpg,3,0.62639048,1
4,2,267,3,87,2,251, man437.jpg, cue_2.jpg,2,0.532983179,1
4,2,268,3,88,1,112, man171.jpg, cue_1.jpg,1,0.613154114,1
4,2,269,3,89,2,250, man436.jpg, cue_2.jpg,2,0.512259595,1
4,2,270,3,90,1,21, man041.jpg, cue_1.jpg,1,0.872422687,1
4,2,271,4,1,3,201, man348.jpg, cue_3.jpg,3,0.548092706,1
4,2,272,4,2,2,197, man338.jpg, cue_2.jpg,2,0.554365129,1
4,2,273,4,3,1,241, man423.jpg, cue_1.jpg,1,0.494068686,1
4,2,274,4,4,1,26, man048.jpg, cue_1.jpg,1,0.594265811,1
4,2,275,4,5,1,261, man460.jpg, cue_1.jpg,1,0.464952957,1
4,2,276,4,6,2,34, man061.jpg, cue_2.jpg,2,0.496992607,1
4,2,277,4,7,3,37, man064.jpg, cue_3.jpg,3,1.08762292,1
4,2,278,4,8,2,212, man365.jpg, cue_2.jpg,2,1.07077619,1
4,2,279,4,9,1,218, man377.jpg, cue_1.jpg,1,0.876531376,1
4,2,280,4,10,3,195, man336.jpg, cue_3.jpg,3,0.476297271,1
4,2,281,4,11,3,61, man099.jpg, cue_3.jpg,2,0.73549687,0
4,2,282,4,12,2,38, man066.jpg, cue_2.jpg,2,0.570378058,1
4,2,283,4,13,3,154, man253.jpg, cue_3.jpg,3,0.643330042,1
4,2,284,4,14,1,256, man447.jpg, cue_1.jpg,1,0.718114701,1
4,2,285,4,15,1,4, man007.jpg, cue_1.jpg,1,0.327994866,1
4,2,286,4,16,1,228, man396.jpg, cue_1.jpg,1,0.796681174,1
4,2,287,4,17,3,74, man117.jpg, cue_3.jpg,3,0.45539307,1
4,2,288,4,18,1,72, man114.jpg, cue_1.jpg,1,0.631714257,1
4,2,289,4,19,1,205, man354.jpg, cue_1.jpg,1,1.790099728,1
4,2,290,4,20,3,12, man027.jpg, cue_3.jpg,3,0.873116863,1
4,2,291,4,21,1,225, man389.jpg, cue_1.jpg,1,0.6303966,1
4,2,292,4,22,3,68, man109.jpg, cue_3.jpg,3,0.519863958,1
4,2,293,4,23,3,105, man162.jpg, cue_3.jpg,3,0.524971955,1
4,2,294,4,24,1,187, man315.jpg, cue_1.jpg,1,0.981721393,1
4,2,295,4,25,2,82, man126.jpg, cue_2.jpg,2,0.516447621,1
4,2,296,4,26,2,63, man101.jpg, cue_2.jpg,2,0.598173602,1
4,2,297,4,27,3,19, man039.jpg, cue_3.jpg,3,0.474898387,1
4,2,298,4,28,1,166, man276.jpg, cue_1.jpg,1,1.108001852,1
4,2,299,4,29,3,143, man237.jpg, cue_3.jpg,3,0.655108,1
4,2,300,4,30,2,136, man212.jpg, cue_2.jpg,2,0.732796653,1
4,2,301,4,31,1,7, man017.jpg, cue_1.jpg,1,0.87659274,1
4,2,302,4,32,3,259, man453.jpg, cue_3.jpg,3,0.801931099,1
4,2,303,4,33,3,122, man189.jpg, cue_3.jpg,3,0.411486586,1
4,2,304,4,34,2,114, man174.jpg, cue_2.jpg,2,0.510140063,1
4,2,305,4,35,1,112, man171.jpg, cue_1.jpg,1,0.549014709,1
4,2,306,4,36,3,182, man310.jpg, cue_3.jpg,3,0.472695378,1
4,2,307,4,37,2,65, man104.jpg, cue_2.jpg,2,0.489868141,1
4,2,308,4,38,3,42, man071.jpg, cue_3.jpg,3,0.431936843,1
4,2,309,4,39,2,11, man025.jpg, cue_2.jpg,7,0,0
4,2,310,4,40,3,88, man135.jpg, cue_3.jpg,3,0.533692726,1
4,2,311,4,41,2,104, man161.jpg, cue_2.jpg,2,1.904729865,1
4,2,312,4,42,1,163, man271.jpg, cue_1.jpg,1,0.543111782,1
4,2,313,4,43,1,17, man035.jpg, cue_1.jpg,1,0.645920151,1
4,2,314,4,44,1,67, man107.jpg, cue_1.jpg,1,0.906330766,1
4,2,315,4,45,2,181, man309.jpg, cue_2.jpg,2,0.446088718,1
4,2,316,4,46,2,95, man145.jpg, cue_2.jpg,2,0.583372823,1
4,2,317,4,47,3,174, man289.jpg, cue_3.jpg,3,0.752602219,1
4,2,318,4,48,2,23, man044.jpg, cue_2.jpg,2,0.563825571,1
4,2,319,4,49,2,125, man193.jpg, cue_2.jpg,2,0.500066406,1
4,2,320,4,50,3,96, man149.jpg, cue_3.jpg,3,0.339726054,1
4,2,321,4,51,1,6, man016.jpg, cue_1.jpg,1,0.497906811,1
4,2,322,4,52,1,27, man050.jpg, cue_1.jpg,1,1.180600175,1
4,2,323,4,53,1,44, man075.jpg, cue_1.jpg,1,0.446121709,1
4,2,324,4,54,2,245, man429.jpg, cue_2.jpg,2,0.464219347,1
4,2,325,4,55,1,36, man063.jpg, cue_1.jpg,1,1.047576774,1
4,2,326,4,56,3,178, man301.jpg, cue_3.jpg,3,0.330369439,1
4,2,327,4,57,3,160, man262.jpg, cue_3.jpg,3,0.481484962,1
4,2,328,4,58,1,226, man390.jpg, cue_1.jpg,1,0.588371064,1
4,2,329,4,59,2,101, man157.jpg, cue_2.jpg,2,0.475814071,1
4,2,330,4,60,2,108, man166.jpg, cue_2.jpg,2,0.45269853,1
4,2,331,4,61,2,132, man206.jpg, cue_2.jpg,2,0.870022443,1
4,2,332,4,62,1,184, man312.jpg, cue_1.jpg,1,0.466862524,1
4,2,333,4,63,1,21, man041.jpg, cue_1.jpg,1,0.517855017,1
4,2,334,4,64,1,189, man322.jpg, cue_1.jpg,1,0.329594757,1
4,2,335,4,65,3,78, man122.jpg, cue_3.jpg,3,0.824813869,1
4,2,336,4,66,1,239, man421.jpg, cue_1.jpg,1,0.633670833,1
4,2,337,4,67,3,229, man401.jpg, cue_3.jpg,3,0.526511851,1
4,2,338,4,68,2,198, man339.jpg, cue_2.jpg,2,0.670573097,1
4,2,339,4,69,3,206, man355.jpg, cue_3.jpg,3,1.141626996,1
4,2,340,4,70,3,269, man468.jpg, cue_3.jpg,3,0.519221346,1
4,2,341,4,71,2,107, man165.jpg, cue_2.jpg,2,0.649987278,1
4,2,342,4,72,3,220, man380.jpg, cue_3.jpg,2,0.390102224,0
4,2,343,4,73,1,131, man205.jpg, cue_1.jpg,1,0.628235335,1
4,2,344,4,74,2,203, man351.jpg, cue_2.jpg,3,0.594706554,0
4,2,345,4,75,3,223, man386.jpg, cue_3.jpg,3,1.777901312,1
4,2,346,4,76,1,98, man154.jpg, cue_1.jpg,1,0.768574225,1
4,2,347,4,77,3,25, man047.jpg, cue_3.jpg,3,0.744700403,1
4,2,348,4,78,1,70, man111.jpg, cue_1.jpg,1,0.584803234,1
4,2,349,4,79,3,150, man248.jpg, cue_3.jpg,3,0.651863823,1
4,2,350,4,80,2,251, man437.jpg, cue_2.jpg,2,0.589852139,1
4,2,351,4,81,2,175, man291.jpg, cue_2.jpg,2,0.625406583,1
4,2,352,4,82,2,2, man004.jpg, cue_2.jpg,2,0.388550713,1
4,2,353,4,83,2,257, man450.jpg, cue_2.jpg,2,0.44641253,1
4,2,354,4,84,2,51, man085.jpg, cue_2.jpg,2,0.60478686,1
4,2,355,4,85,2,250, man436.jpg, cue_2.jpg,2,0.695386262,1
4,2,356,4,86,2,176, man298.jpg, cue_2.jpg,2,0.469409207,1
4,2,357,4,87,3,33, man060.jpg, cue_3.jpg,3,1.404979217,1
4,2,358,4,88,3,52, man086.jpg, cue_3.jpg,3,0.603975326,1
4,2,359,4,89,2,165, man275.jpg, cue_2.jpg,1,0.748407736,0
4,2,360,4,90,1,156, man257.jpg, cue_1.jpg,1,1.288624233,1
5,1,1,1,1,1,44, man075.jpg, cue_1.jpg,1,1.426617153,1
5,1,2,1,2,2,131, man205.jpg, cue_2.jpg,2,0.465713271,1
5,1,3,1,3,1,214, man370.jpg, cue_1.jpg,1,0.51539593,1
5,1,4,1,4,3,223, man386.jpg, cue_3.jpg,3,0.514366111,1
5,1,5,1,5,1,204, man352.jpg, cue_1.jpg,2,0.366183973,0
5,1,6,1,6,2,72, man114.jpg, cue_2.jpg,2,0.401415141,1
5,1,7,1,7,2,23, man044.jpg, cue_2.jpg,3,0.489407054,0
5,1,8,1,8,1,13, man029.jpg, cue_1.jpg,3,0.498088135,0
5,1,9,1,9,3,39, man067.jpg, cue_3.jpg,3,0.477675535,1
5,1,10,1,10,1,130, man203.jpg, cue_1.jpg,2,0.650953999,0
5,1,11,1,11,2,151, man249.jpg, cue_2.jpg,1,0.525632303,0
5,1,12,1,12,1,93, man141.jpg, cue_1.jpg,2,0.38200981,0
5,1,13,1,13,2,101, man157.jpg, cue_2.jpg,2,0.526737006,1
5,1,14,1,14,1,92, man139.jpg, cue_1.jpg,3,1.207167233,0
5,1,15,1,15,3,134, man208.jpg, cue_3.jpg,2,0.406511406,0
5,1,16,1,16,3,32, man059.jpg, cue_3.jpg,3,0.386650869,1
5,1,17,1,17,2,150, man248.jpg, cue_2.jpg,2,0.375857095,1
5,1,18,1,18,3,154, man253.jpg, cue_3.jpg,3,0.34926845,1
5,1,19,1,19,2,152, man250.jpg, cue_2.jpg,2,0.336455014,1
5,1,20,1,20,1,147, man245.jpg, cue_1.jpg,1,0.351211136,1
5,1,21,1,21,3,169, man279.jpg, cue_3.jpg,2,0.385186863,0
5,1,22,1,22,2,117, man180.jpg, cue_2.jpg,1,0.356779745,0
5,1,23,1,23,3,68, man109.jpg, cue_3.jpg,3,0.496320525,1
5,1,24,1,24,3,236, man414.jpg, cue_3.jpg,3,0.3816161,1
5,1,25,1,25,1,198, man339.jpg, cue_1.jpg,1,0.39257166,1
5,1,26,1,26,1,161, man267.jpg, cue_1.jpg,1,0.394318204,1
5,1,27,1,27,3,16, man034.jpg, cue_3.jpg,3,0.406621893,1
5,1,28,1,28,3,115, man177.jpg, cue_3.jpg,3,0.55903791,1
5,1,29,1,29,3,208, man358.jpg, cue_3.jpg,3,0.826980429,1
5,1,30,1,30,2,238, man417.jpg, cue_2.jpg,2,0.335762781,1
5,1,31,1,31,1,80, man124.jpg, cue_1.jpg,1,0.540524036,1
5,1,32,1,32,1,187, man315.jpg, cue_1.jpg,2,0.285867004,0
5,1,33,1,33,1,230, man403.jpg, cue_1.jpg,1,0.430362191,1
5,1,34,1,34,2,167, man277.jpg, cue_2.jpg,2,0.309211363,1
5,1,35,1,35,3,145, man242.jpg, cue_3.jpg,1,0.531230018,0
5,1,36,1,36,1,71, man112.jpg, cue_1.jpg,3,0.538556964,0
5,1,37,1,37,2,107, man165.jpg, cue_2.jpg,2,0.61471496,1
5,1,38,1,38,2,135, man209.jpg, cue_2.jpg,1,0.732568647,0
5,1,39,1,39,1,50, man084.jpg, cue_1.jpg,1,0.516459676,1
5,1,40,1,40,3,179, man303.jpg, cue_3.jpg,3,0.561864756,1
5,1,41,1,41,1,233, man410.jpg, cue_1.jpg,1,0.734038436,1
5,1,42,1,42,1,174, man289.jpg, cue_1.jpg,1,0.735520284,1
5,1,43,1,43,3,176, man298.jpg, cue_3.jpg,2,0.576235067,0
5,1,44,1,44,3,112, man171.jpg, cue_3.jpg,2,0.465790329,0
5,1,45,1,45,2,45, man076.jpg, cue_2.jpg,2,0.724683703,1
5,1,46,1,46,2,232, man407.jpg, cue_2.jpg,2,0.573957872,1
5,1,47,1,47,1,48, man079.jpg, cue_1.jpg,2,0.680370538,0
5,1,48,1,48,1,254, man445.JPG, cue_1.jpg,1,0.656332778,1
5,1,49,1,49,2,105, man162.jpg, cue_2.jpg,2,0.341580163,1
5,1,50,1,50,2,163, man271.jpg, cue_2.jpg,3,0.520849175,0
5,1,51,1,51,2,166, man276.jpg, cue_2.jpg,3,0.51240672,0
5,1,52,1,52,1,224, man387.jpg, cue_1.jpg,3,0.574586824,0
5,1,53,1,53,2,137, man221.jpg, cue_2.jpg,1,0.409934873,0
5,1,54,1,54,1,212, man365.jpg, cue_1.jpg,1,0.453518621,1
5,1,55,1,55,1,262, man461.jpg, cue_1.jpg,3,1.029627602,0
5,1,56,1,56,3,160, man262.jpg, cue_3.jpg,3,0.497282208,1
5,1,57,1,57,3,90, man137.jpg, cue_3.jpg,2,0.551532118,0
5,1,58,1,58,1,197, man338.jpg, cue_1.jpg,1,0.478882695,1
5,1,59,1,59,3,85, man130.jpg, cue_3.jpg,2,0.558668768,0
5,1,60,1,60,1,149, man247.jpg, cue_1.jpg,2,0.561935747,0
5,1,61,1,61,3,25, man047.jpg, cue_3.jpg,3,0.713415105,1
5,1,62,1,62,2,33, man060.jpg, cue_2.jpg,2,1.101398684,1
5,1,63,1,63,2,54, man089.jpg, cue_2.jpg,2,1.602884857,1
5,1,64,1,64,1,14, man031.jpg, cue_1.jpg,3,0.574712274,0
5,1,65,1,65,1,217, man375.jpg, cue_1.jpg,1,0.95782601,1
5,1,66,1,66,3,52, man086.jpg, cue_3.jpg,1,0.459601532,0
5,1,67,1,67,1,111, man169.jpg, cue_1.jpg,1,0.546240613,1
5,1,68,1,68,3,64, man102.jpg, cue_3.jpg,3,0.716401696,1
5,1,69,1,69,3,190, man326.jpg, cue_3.jpg,3,0.407041131,1
5,1,70,1,70,2,248, man433.jpg, cue_2.jpg,2,0.519208892,1
5,1,71,1,71,3,75, man118.jpg, cue_3.jpg,3,0.549640304,1
5,1,72,1,72,1,76, man120.jpg, cue_1.jpg,2,1.200439346,0
5,1,73,1,73,2,66, man106.jpg, cue_2.jpg,2,0.841103084,1
5,1,74,1,74,2,27, man050.jpg, cue_2.jpg,2,0.485473218,1
5,1,75,1,75,3,178, man301.jpg, cue_3.jpg,3,1.87906786,1
5,1,76,1,76,3,240, man422.jpg, cue_3.jpg,3,0.71642133,1
5,1,77,1,77,1,195, man336.jpg, cue_1.jpg,2,0.530041841,0
5,1,78,1,78,3,95, man145.jpg, cue_3.jpg,3,0.688894603,1
5,1,79,1,79,2,221, man382.jpg, cue_2.jpg,2,0.501190039,1
5,1,80,1,80,3,146, man244.jpg, cue_3.jpg,2,0.42986872,0
5,1,81,1,81,2,246, man430.jpg, cue_2.jpg,2,1.02760305,1
5,1,82,1,82,2,15, man032.jpg, cue_2.jpg,1,1.064248762,0
5,1,83,1,83,3,148, man246.jpg, cue_3.jpg,2,0.933229586,0
5,1,84,1,84,2,186, man314.jpg, cue_2.jpg,2,0.564437396,1
5,1,85,1,85,3,177, man299.jpg, cue_3.jpg,3,1.194387683,1
5,1,86,1,86,2,252, man439.jpg, cue_2.jpg,2,0.457032225,1
5,1,87,1,87,3,35, man062.jpg, cue_3.jpg,1,1.539086828,0
5,1,88,1,88,2,265, man464.jpg, cue_2.jpg,3,0.568656466,0
5,1,89,1,89,2,49, man082.jpg, cue_2.jpg,2,0.401572602,1
5,1,90,1,90,1,127, man197.jpg, cue_1.jpg,2,0.416088683,0
5,1,91,2,1,3,16, man034.jpg, cue_3.jpg,3,1.161785941,1
5,1,92,2,2,1,147, man245.jpg, cue_1.jpg,1,1.524454543,1
5,1,93,2,3,3,236, man414.jpg, cue_3.jpg,3,0.486889984,1
5,1,94,2,4,1,149, man247.jpg, cue_1.jpg,1,1.086512424,1
5,1,95,2,5,2,101, man157.jpg, cue_2.jpg,2,0.520825739,1
5,1,96,2,6,3,90, man137.jpg, cue_3.jpg,3,0.930414717,1
5,1,97,2,7,2,23, man044.jpg, cue_2.jpg,2,0.296647229,1
5,1,98,2,8,3,154, man253.jpg, cue_3.jpg,3,0.316012841,1
5,1,99,2,9,1,92, man139.jpg, cue_1.jpg,1,0.36695215,1
5,1,100,2,10,1,214, man370.jpg, cue_1.jpg,1,0.475531156,1
5,1,101,2,11,1,13, man029.jpg, cue_1.jpg,1,0.374750103,1
5,1,102,2,12,2,232, man407.jpg, cue_2.jpg,2,0.38112012,1
5,1,103,2,13,3,134, man208.jpg, cue_3.jpg,1,0.945418764,0
5,1,104,2,14,2,166, man276.jpg, cue_2.jpg,2,0.503238927,1
5,1,105,2,15,3,148, man246.jpg, cue_3.jpg,3,0.386195144,1
5,1,106,2,16,3,68, man109.jpg, cue_3.jpg,3,0.292063077,1
5,1,107,2,17,3,95, man145.jpg, cue_3.jpg,3,0.384808011,1
5,1,108,2,18,1,187, man315.jpg, cue_1.jpg,1,0.361650186,1
5,1,109,2,19,2,252, man439.jpg, cue_2.jpg,2,0.52137962,1
5,1,110,2,20,2,150, man248.jpg, cue_2.jpg,2,0.409693544,1
5,1,111,2,21,2,117, man180.jpg, cue_2.jpg,2,0.451414146,1
5,1,112,2,22,1,254, man445.JPG, cue_1.jpg,1,0.481661661,1
5,1,113,2,23,3,160, man262.jpg, cue_3.jpg,3,0.362854726,1
5,1,114,2,24,1,111, man169.jpg, cue_1.jpg,1,0.330226699,1
5,1,115,2,25,3,177, man299.jpg, cue_3.jpg,3,0.452198078,1
5,1,116,2,26,1,195, man336.jpg, cue_1.jpg,1,0.477655485,1
5,1,117,2,27,2,45, man076.jpg, cue_2.jpg,2,0.40541089,1
5,1,118,2,28,3,178, man301.jpg, cue_3.jpg,3,0.391230855,1
5,1,119,2,29,3,115, man177.jpg, cue_3.jpg,3,0.453838767,1
5,1,120,2,30,3,146, man244.jpg, cue_3.jpg,3,1.210559513,1
5,1,121,2,31,1,80, man124.jpg, cue_1.jpg,1,0.357837465,1
5,1,122,2,32,2,186, man314.jpg, cue_2.jpg,2,0.402459557,1
5,1,123,2,33,2,221, man382.jpg, cue_2.jpg,3,0.323458425,0
5,1,124,2,34,2,151, man249.jpg, cue_2.jpg,2,0.308792957,1
5,1,125,2,35,1,174, man289.jpg, cue_1.jpg,1,0.334827379,1
5,1,126,2,36,1,14, man031.jpg, cue_1.jpg,1,0.453860358,1
5,1,127,2,37,3,169, man279.jpg, cue_3.jpg,3,0.497512375,1
5,1,128,2,38,2,135, man209.jpg, cue_2.jpg,2,0.324402949,1
5,1,129,2,39,3,190, man326.jpg, cue_3.jpg,3,0.409581074,1
5,1,130,2,40,1,233, man410.jpg, cue_1.jpg,1,0.410688508,1
5,1,131,2,41,2,265, man464.jpg, cue_2.jpg,2,0.64160286,1
5,1,132,2,42,2,152, man250.jpg, cue_2.jpg,2,0.789325648,1
5,1,133,2,43,1,262, man461.jpg, cue_1.jpg,1,1.045279892,1
5,1,134,2,44,1,212, man365.jpg, cue_1.jpg,1,0.458587212,1
5,1,135,2,45,2,248, man433.jpg, cue_2.jpg,2,0.74245842,1
5,1,136,2,46,2,238, man417.jpg, cue_2.jpg,2,0.54918535,1
5,1,137,2,47,1,224, man387.jpg, cue_1.jpg,2,1.52721147,0
5,1,138,2,48,2,105, man162.jpg, cue_2.jpg,2,0.363503154,1
5,1,139,2,49,3,25, man047.jpg, cue_3.jpg,3,0.458551864,1
5,1,140,2,50,2,246, man430.jpg, cue_2.jpg,2,0.589712905,1
5,1,141,2,51,3,176, man298.jpg, cue_3.jpg,3,0.462613153,1
5,1,142,2,52,1,76, man120.jpg, cue_1.jpg,1,0.43619748,1
5,1,143,2,53,2,54, man089.jpg, cue_2.jpg,2,0.48165961,1
5,1,144,2,54,3,179, man303.jpg, cue_3.jpg,3,0.446401411,1
5,1,145,2,55,2,107, man165.jpg, cue_2.jpg,2,0.507283511,1
5,1,146,2,56,1,204, man352.jpg, cue_1.jpg,1,1.597921773,1
5,1,147,2,57,1,44, man075.jpg, cue_1.jpg,1,0.375915358,1
5,1,148,2,58,3,223, man386.jpg, cue_3.jpg,1,0.696051616,0
5,1,149,2,59,3,39, man067.jpg, cue_3.jpg,3,0.390871751,1
5,1,150,2,60,3,240, man422.jpg, cue_3.jpg,3,0.583465176,1
5,1,151,2,61,3,52, man086.jpg, cue_3.jpg,3,0.418353634,1
5,1,152,2,62,3,85, man130.jpg, cue_3.jpg,3,1.553742615,1
5,1,153,2,63,3,32, man059.jpg, cue_3.jpg,3,1.130850661,1
5,1,154,2,64,2,137, man221.jpg, cue_2.jpg,2,1.259545049,1
5,1,155,2,65,3,35, man062.jpg, cue_3.jpg,1,1.408563634,0
5,1,156,2,66,2,167, man277.jpg, cue_2.jpg,2,0.416742407,1
5,1,157,2,67,1,50, man084.jpg, cue_1.jpg,1,0.437936171,1
5,1,158,2,68,3,75, man118.jpg, cue_3.jpg,3,0.974079993,1
5,1,159,2,69,2,33, man060.jpg, cue_2.jpg,2,0.688329869,1
5,1,160,2,70,1,48, man079.jpg, cue_1.jpg,1,0.68091375,1
5,1,161,2,71,2,49, man082.jpg, cue_2.jpg,2,0.733130717,1
5,1,162,2,72,1,161, man267.jpg, cue_1.jpg,1,1.886443092,1
5,1,163,2,73,1,217, man375.jpg, cue_1.jpg,1,0.374981183,1
5,1,164,2,74,1,127, man197.jpg, cue_1.jpg,1,0.468714482,1
5,1,165,2,75,3,64, man102.jpg, cue_3.jpg,3,0.464544171,1
5,1,166,2,76,3,145, man242.jpg, cue_3.jpg,3,0.458552955,1
5,1,167,2,77,1,130, man203.jpg, cue_1.jpg,1,0.374872211,1
5,1,168,2,78,2,15, man032.jpg, cue_2.jpg,2,0.217604348,1
5,1,169,2,79,2,163, man271.jpg, cue_2.jpg,2,0.467967959,1
5,1,170,2,80,1,71, man112.jpg, cue_1.jpg,1,0.057880378,1
5,1,171,2,81,1,230, man403.jpg, cue_1.jpg,1,1.136337534,1
5,1,172,2,82,2,66, man106.jpg, cue_2.jpg,2,0.382012372,1
5,1,173,2,83,1,197, man338.jpg, cue_1.jpg,1,0.779480347,1
5,1,174,2,84,2,27, man050.jpg, cue_2.jpg,2,0.394512987,1
5,1,175,2,85,1,93, man141.jpg, cue_1.jpg,1,0.328579487,1
5,1,176,2,86,3,112, man171.jpg, cue_3.jpg,3,0.358669994,1
5,1,177,2,87,2,72, man114.jpg, cue_2.jpg,2,0.451766854,1
5,1,178,2,88,1,198, man339.jpg, cue_1.jpg,1,0.676283006,1
5,1,179,2,89,3,208, man358.jpg, cue_3.jpg,3,0.256236078,1
5,1,180,2,90,2,131, man205.jpg, cue_2.jpg,2,0.68896381,1
5,1,181,3,1,3,146, man244.jpg, cue_3.jpg,7,0,0
5,1,182,3,2,2,163, man271.jpg, cue_2.jpg,2,0.411885538,1
5,1,183,3,3,1,224, man387.jpg, cue_1.jpg,1,0.495161979,1
5,1,184,3,4,3,112, man171.jpg, cue_3.jpg,3,0.394837794,1
5,1,185,3,5,3,52, man086.jpg, cue_3.jpg,3,0.329510047,1
5,1,186,3,6,2,137, man221.jpg, cue_2.jpg,2,0.194885494,1
5,1,187,3,7,2,232, man407.jpg, cue_2.jpg,2,0.406754482,1
5,1,188,3,8,2,23, man044.jpg, cue_2.jpg,2,0.589401962,1
5,1,189,3,9,2,49, man082.jpg, cue_2.jpg,2,0.324862919,1
5,1,190,3,10,2,238, man417.jpg, cue_2.jpg,2,0.393588062,1
5,1,191,3,11,1,161, man267.jpg, cue_1.jpg,1,1.130534253,1
5,1,192,3,12,3,236, man414.jpg, cue_3.jpg,3,0.44188995,1
5,1,193,3,13,2,101, man157.jpg, cue_2.jpg,2,0.41385306,1
5,1,194,3,14,2,33, man060.jpg, cue_2.jpg,2,0.350342389,1
5,1,195,3,15,2,246, man430.jpg, cue_2.jpg,2,0.32819283,1
5,1,196,3,16,3,32, man059.jpg, cue_3.jpg,3,0.390884927,1
5,1,197,3,17,1,44, man075.jpg, cue_1.jpg,1,0.344636528,1
5,1,198,3,18,1,187, man315.jpg, cue_1.jpg,1,0.640006562,1
5,1,199,3,19,1,214, man370.jpg, cue_1.jpg,1,0.674639203,1
5,1,200,3,20,2,186, man314.jpg, cue_2.jpg,2,0.539255635,1
5,1,201,3,21,2,151, man249.jpg, cue_2.jpg,2,0.446235273,1
5,1,202,3,22,1,111, man169.jpg, cue_1.jpg,1,0.278311946,1
5,1,203,3,23,3,16, man034.jpg, cue_3.jpg,2,0.233339169,0
5,1,204,3,24,3,95, man145.jpg, cue_3.jpg,3,0.296861194,1
5,1,205,3,25,3,134, man208.jpg, cue_3.jpg,3,0.281321204,1
5,1,206,3,26,2,54, man089.jpg, cue_2.jpg,2,0.281010228,1
5,1,207,3,27,1,149, man247.jpg, cue_1.jpg,3,0.430495143,0
5,1,208,3,28,1,127, man197.jpg, cue_1.jpg,1,0.462796753,1
5,1,209,3,29,1,71, man112.jpg, cue_1.jpg,1,0.424451708,1
5,1,210,3,30,3,176, man298.jpg, cue_3.jpg,3,0.421593192,1
5,1,211,3,31,3,68, man109.jpg, cue_3.jpg,3,0.729270066,1
5,1,212,3,32,1,48, man079.jpg, cue_1.jpg,1,0.404064663,1
5,1,213,3,33,3,169, man279.jpg, cue_3.jpg,3,0.372640915,1
5,1,214,3,34,2,27, man050.jpg, cue_2.jpg,2,0.287403407,1
5,1,215,3,35,1,217, man375.jpg, cue_1.jpg,1,0.325295722,1
5,1,216,3,36,1,230, man403.jpg, cue_1.jpg,1,0.337527115,1
5,1,217,3,37,3,208, man358.jpg, cue_3.jpg,3,0.359227229,1
5,1,218,3,38,2,15, man032.jpg, cue_2.jpg,2,0.596845341,1
5,1,219,3,39,1,50, man084.jpg, cue_1.jpg,1,0.619848558,1
5,1,220,3,40,1,197, man338.jpg, cue_1.jpg,1,0.419281636,1
5,1,221,3,41,1,212, man365.jpg, cue_1.jpg,1,0.304499266,1
5,1,222,3,42,3,145, man242.jpg, cue_3.jpg,3,0.321101059,1
5,1,223,3,43,3,115, man177.jpg, cue_3.jpg,3,0.49362295,1
5,1,224,3,44,3,148, man246.jpg, cue_3.jpg,3,0.435279473,1
5,1,225,3,45,3,64, man102.jpg, cue_3.jpg,3,0.934589981,1
5,1,226,3,46,3,178, man301.jpg, cue_3.jpg,3,0.292846005,1
5,1,227,3,47,2,252, man439.jpg, cue_2.jpg,2,0.454769887,1
5,1,228,3,48,2,131, man205.jpg, cue_2.jpg,2,0.416273308,1
5,1,229,3,49,3,190, man326.jpg, cue_3.jpg,3,1.063125071,1
5,1,230,3,50,2,265, man464.jpg, cue_2.jpg,2,0.345266131,1
5,1,231,3,51,2,66, man106.jpg, cue_2.jpg,2,0.619587693,1
5,1,232,3,52,1,13, man029.jpg, cue_1.jpg,1,0.457546249,1
5,1,233,3,53,1,204, man352.jpg, cue_1.jpg,1,0.447699915,1
5,1,234,3,54,3,85, man130.jpg, cue_3.jpg,3,0.463080255,1
5,1,235,3,55,3,223, man386.jpg, cue_3.jpg,3,0.395474096,1
5,1,236,3,56,3,35, man062.jpg, cue_3.jpg,3,0.41087447,1
5,1,237,3,57,2,45, man076.jpg, cue_2.jpg,2,0.32774944,1
5,1,238,3,58,1,198, man339.jpg, cue_1.jpg,1,0.362581189,1
5,1,239,3,59,2,72, man114.jpg, cue_2.jpg,2,0.408239053,1
5,1,240,3,60,1,92, man139.jpg, cue_1.jpg,1,0.910319521,1
5,1,241,3,61,1,174, man289.jpg, cue_1.jpg,1,0.950674514,1
5,1,242,3,62,3,90, man137.jpg, cue_3.jpg,3,0.852610722,1
5,1,243,3,63,1,130, man203.jpg, cue_1.jpg,1,0.531730299,1
5,1,244,3,64,2,135, man209.jpg, cue_2.jpg,2,0.289423752,1
5,1,245,3,65,1,80, man124.jpg, cue_1.jpg,1,0.478053377,1
5,1,246,3,66,1,14, man031.jpg, cue_1.jpg,1,0.375339712,1
5,1,247,3,67,2,221, man382.jpg, cue_2.jpg,2,0.45979956,1
5,1,248,3,68,3,240, man422.jpg, cue_3.jpg,3,0.392269375,1
5,1,249,3,69,1,254, man445.JPG, cue_1.jpg,1,0.780030178,1
5,1,250,3,70,1,147, man245.jpg, cue_1.jpg,1,0.514106184,1
5,1,251,3,71,1,262, man461.jpg, cue_1.jpg,1,0.830562507,1
5,1,252,3,72,1,76, man120.jpg, cue_1.jpg,1,0.441151105,1
5,1,253,3,73,2,167, man277.jpg, cue_2.jpg,2,0.38890611,1
5,1,254,3,74,2,166, man276.jpg, cue_2.jpg,2,0.410018344,1
5,1,255,3,75,1,233, man410.jpg, cue_1.jpg,1,0.261042346,1
5,1,256,3,76,3,160, man262.jpg, cue_3.jpg,2,0.461175097,0
5,1,257,3,77,3,179, man303.jpg, cue_3.jpg,3,0.890478318,1
5,1,258,3,78,3,75, man118.jpg, cue_3.jpg,3,0.508321914,1
5,1,259,3,79,3,25, man047.jpg, cue_3.jpg,3,0.539446675,1
5,1,260,3,80,2,107, man165.jpg, cue_2.jpg,2,0.472060946,1
5,1,261,3,81,3,39, man067.jpg, cue_3.jpg,3,0.370789894,1
5,1,262,3,82,1,93, man141.jpg, cue_1.jpg,1,0.419594349,1
5,1,263,3,83,3,177, man299.jpg, cue_3.jpg,3,0.348307614,1
5,1,264,3,84,3,154, man253.jpg, cue_3.jpg,3,0.476101519,1
5,1,265,3,85,2,248, man433.jpg, cue_2.jpg,2,0.584631621,1
5,1,266,3,86,2,117, man180.jpg, cue_2.jpg,2,0.46153391,1
5,1,267,3,87,2,152, man250.jpg, cue_2.jpg,2,1.483742752,1
5,1,268,3,88,1,195, man336.jpg, cue_1.jpg,1,0.468260611,1
5,1,269,3,89,2,105, man162.jpg, cue_2.jpg,2,0.499066464,1
5,1,270,3,90,2,150, man248.jpg, cue_2.jpg,2,0.620786384,1
5,1,271,4,1,3,134, man208.jpg, cue_3.jpg,3,0.714378865,1
5,1,272,4,2,2,33, man060.jpg, cue_2.jpg,2,0.528237248,1
5,1,273,4,3,2,107, man165.jpg, cue_2.jpg,2,0.342523281,1
5,1,274,4,4,1,195, man336.jpg, cue_1.jpg,1,0.287186002,1
5,1,275,4,5,1,214, man370.jpg, cue_1.jpg,1,0.420861774,1
5,1,276,4,6,3,236, man414.jpg, cue_3.jpg,3,0.493072425,1
5,1,277,4,7,2,151, man249.jpg, cue_2.jpg,2,0.358231656,1
5,1,278,4,8,1,76, man120.jpg, cue_1.jpg,1,0.431510826,1
5,1,279,4,9,1,14, man031.jpg, cue_1.jpg,1,0.320034108,1
5,1,280,4,10,2,135, man209.jpg, cue_2.jpg,1,0.290506821,0
