SN,Btw,Trial,Block,bTrial,cCue,IMidx,IMname,CueName,Resp,RT,Corr
1,1,1,1,1,1,147, man245.jpg, cue_1.jpg,1,0.8369,1
1,1,2,1,2,1,56, man092.jpg, cue_1.jpg,2,1.539,0
1,1,3,1,3,1,79, man123.jpg, cue_1.jpg,1,1.6033,1
1,1,4,1,4,2,100, man156.jpg, cue_2.jpg,2,1.2982,1
1,1,5,1,5,3,27, man050.jpg, cue_3.jpg,1,1.6447,0
1,1,6,1,6,1,142, man234.jpg, cue_1.jpg,1,1.3368,1
1,1,7,1,7,1,152, man250.jpg, cue_1.jpg,1,1.1042,1
1,1,8,1,8,3,93, man141.jpg, cue_3.jpg,7,0,0
1,1,9,1,9,3,160, man262.jpg, cue_3.jpg,3,1.213,1
1,1,10,1,10,2,87, man133.jpg, cue_2.jpg,2,1.3389,1
1,1,11,1,11,2,67, man107.jpg, cue_2.jpg,2,1.3002,1
1,1,12,1,12,2,159, man260.jpg, cue_2.jpg,2,1.2637,1
1,1,13,1,13,2,134, man208.jpg, cue_2.jpg,2,0.7798,1
1,1,14,1,14,1,84, man129.jpg, cue_1.jpg,1,1.1479,1
1,1,15,1,15,2,34, man061.jpg, cue_2.jpg,2,0.6852,1
1,1,16,1,16,1,98, man154.jpg, cue_1.jpg,2,1.3619,0
1,1,17,1,17,1,205, man354.jpg, cue_1.jpg,1,1.098,1
1,1,18,1,18,2,40, man068.jpg, cue_2.jpg,3,1.629,0
1,1,19,1,19,2,31, man058.jpg, cue_2.jpg,2,1.4822,1
1,1,20,1,20,1,225, man389.jpg, cue_1.jpg,1,1.6455,1
1,1,21,1,21,1,132, man206.jpg, cue_1.jpg,1,1.4178,1
1,1,22,1,22,3,124, man191.jpg, cue_3.jpg,2,1.3431,0
1,1,23,1,23,2,62, man100.jpg, cue_2.jpg,2,1.4969,1
1,1,24,1,24,3,58, man094.jpg, cue_3.jpg,3,0.8756,1
1,1,25,1,25,3,43, man072.jpg, cue_3.jpg,3,1.0461,1
1,1,26,1,26,1,241, man423.jpg, cue_1.jpg,1,0.7498,1
1,1,27,1,27,3,140, man230.jpg, cue_3.jpg,3,1.2963,1
1,1,28,1,28,3,245, man429.jpg, cue_3.jpg,2,1.7073,0
1,1,29,1,29,3,204, man352.jpg, cue_3.jpg,1,1.8554,0
1,1,30,1,30,1,73, man115.jpg, cue_1.jpg,1,0.7066,1
1,1,31,1,31,1,17, man035.jpg, cue_1.jpg,1,1.0148,1
1,1,32,1,32,2,49, man082.jpg, cue_2.jpg,2,1.2915,1
1,1,33,1,33,1,25, man047.jpg, cue_1.jpg,1,1.1455,1
1,1,34,1,34,2,10, man024.jpg, cue_2.jpg,2,1.0345,1
1,1,35,1,35,1,161, man267.jpg, cue_1.jpg,1,1.361,1
1,1,36,1,36,2,136, man212.jpg, cue_2.jpg,2,1.4808,1
1,1,37,1,37,1,111, man169.jpg, cue_1.jpg,1,0.7952,1
1,1,38,1,38,1,33, man060.jpg, cue_1.jpg,1,1.7397,1
1,1,39,1,39,1,144, man240.jpg, cue_1.jpg,1,1.1077,1
1,1,40,1,40,1,37, man064.jpg, cue_1.jpg,2,1.7519,0
1,1,41,1,41,2,253, man443.jpg, cue_2.jpg,2,1.7251,1
1,1,42,1,42,2,19, man039.jpg, cue_2.jpg,2,1.4648,1
1,1,43,1,43,3,6, man016.jpg, cue_3.jpg,3,0.9062,1
1,1,44,1,44,2,211, man361.jpg, cue_2.jpg,1,0.8249,0
1,1,45,1,45,3,162, man268.jpg, cue_3.jpg,3,1.3042,1
1,1,46,1,46,1,61, man099.jpg, cue_1.jpg,1,0.9791,1
1,1,47,1,47,1,233, man410.jpg, cue_1.jpg,1,0.9072,1
1,1,48,1,48,1,148, man246.jpg, cue_1.jpg,2,0.8061,0
1,1,49,1,49,1,76, man120.jpg, cue_1.jpg,3,1.9429,0
1,1,50,1,50,2,129, man202.jpg, cue_2.jpg,3,1.7508,0
1,1,51,1,51,2,208, man358.jpg, cue_2.jpg,2,1.5192,1
1,1,52,1,52,2,250, man436.jpg, cue_2.jpg,2,1.2649,1
1,1,53,1,53,3,218, man377.jpg, cue_3.jpg,3,1.0696,1
1,1,54,1,54,2,193, man332.jpg, cue_2.jpg,2,0.6582,1
1,1,55,1,55,2,191, man328.jpg, cue_2.jpg,1,0.7105,0
1,1,56,1,56,3,107, man165.jpg, cue_3.jpg,1,1.5792,0
1,1,57,1,57,3,216, man374.jpg, cue_3.jpg,3,1.5616,1
1,1,58,1,58,1,102, man158.jpg, cue_1.jpg,1,0.8735,1
1,1,59,1,59,3,71, man112.jpg, cue_3.jpg,3,0.71,1
1,1,60,1,60,2,41, man070.jpg, cue_2.jpg,2,1.5458,1
1,1,61,1,61,3,209, man359.jpg, cue_3.jpg,1,1.0342,0
1,1,62,1,62,3,20, man040.jpg, cue_3.jpg,3,1.2618,1
1,1,63,1,63,2,197, man338.jpg, cue_2.jpg,2,0.7644,1
1,1,64,1,64,2,190, man326.jpg, cue_2.jpg,1,0.7818,0
1,1,65,1,65,3,15, man032.jpg, cue_3.jpg,3,1.2942,1
1,1,66,1,66,1,263, man462.jpg, cue_1.jpg,1,0.8092,1
1,1,67,1,67,3,234, man412.jpg, cue_3.jpg,1,0.6972,0
1,1,68,1,68,1,4, man007.jpg, cue_1.jpg,1,0.7818,1
1,1,69,1,69,3,217, man375.jpg, cue_3.jpg,1,1.4224,0
1,1,70,1,70,3,174, man289.jpg, cue_3.jpg,3,0.8522,1
1,1,71,1,71,3,222, man383.jpg, cue_3.jpg,2,0.6904,0
1,1,72,1,72,1,145, man242.jpg, cue_1.jpg,1,0.8232,1
1,1,73,1,73,3,175, man291.jpg, cue_3.jpg,3,1.2538,1
1,1,74,1,74,2,238, man417.jpg, cue_2.jpg,2,0.819,1
1,1,75,1,75,3,167, man277.jpg, cue_3.jpg,2,1.3301,0
1,1,76,1,76,3,259, man453.jpg, cue_3.jpg,2,1.4349,0
1,1,77,1,77,1,171, man282.jpg, cue_1.jpg,2,1.551,0
1,1,78,1,78,2,59, man095.jpg, cue_2.jpg,2,1.7283,1
1,1,79,1,79,2,200, man345.jpg, cue_2.jpg,1,0.7424,0
1,1,80,1,80,1,267, man466.jpg, cue_1.jpg,3,0.7473,0
1,1,81,1,81,2,165, man275.jpg, cue_2.jpg,1,0.7177,0
1,1,82,1,82,3,207, man357.jpg, cue_3.jpg,7,0,0
1,1,83,1,83,2,188, man316.jpg, cue_2.jpg,2,1.2557,1
1,1,84,1,84,3,65, man104.jpg, cue_3.jpg,2,1.4287,0
1,1,85,1,85,3,80, man124.jpg, cue_3.jpg,1,1.1302,0
1,1,86,1,86,2,244, man428.jpg, cue_2.jpg,1,0.7293,0
1,1,87,1,87,1,109, man167.jpg, cue_1.jpg,1,0.8144,1
1,1,88,1,88,3,137, man221.jpg, cue_3.jpg,3,1.341,1
1,1,89,1,89,2,38, man066.jpg, cue_2.jpg,2,1.0145,1
1,1,90,1,90,3,203, man351.jpg, cue_3.jpg,3,1.2294,1
1,1,91,2,1,3,137, man221.jpg, cue_3.jpg,3,1.5042,1
1,1,92,2,2,2,193, man332.jpg, cue_2.jpg,2,0.5776,1
1,1,93,2,3,1,61, man099.jpg, cue_1.jpg,1,1.0991,1
1,1,94,2,4,1,79, man123.jpg, cue_1.jpg,1,0.5259,1
1,1,95,2,5,3,71, man112.jpg, cue_3.jpg,3,0.8739,1
1,1,96,2,6,2,10, man024.jpg, cue_2.jpg,2,0.9188,1
1,1,97,2,7,2,211, man361.jpg, cue_2.jpg,2,1.3776,1
1,1,98,2,8,3,20, man040.jpg, cue_3.jpg,3,0.8255,1
1,1,99,2,9,1,111, man169.jpg, cue_1.jpg,1,0.4233,1
1,1,100,2,10,2,100, man156.jpg, cue_2.jpg,2,0.8876,1
1,1,101,2,11,3,162, man268.jpg, cue_3.jpg,3,0.6123,1
1,1,102,2,12,2,197, man338.jpg, cue_2.jpg,2,0.4917,1
1,1,103,2,13,2,49, man082.jpg, cue_2.jpg,2,1.1385,1
1,1,104,2,14,2,134, man208.jpg, cue_2.jpg,2,0.6826,1
1,1,105,2,15,3,204, man352.jpg, cue_3.jpg,1,1.9929,0
1,1,106,2,16,1,73, man115.jpg, cue_1.jpg,3,1.8784,0
1,1,107,2,17,1,84, man129.jpg, cue_1.jpg,1,1.0335,1
1,1,108,2,18,1,267, man466.jpg, cue_1.jpg,1,1.3273,1
1,1,109,2,19,1,56, man092.jpg, cue_1.jpg,1,1.6259,1
1,1,110,2,20,1,33, man060.jpg, cue_1.jpg,1,1.8791,1
1,1,111,2,21,2,165, man275.jpg, cue_2.jpg,2,1.0979,1
1,1,112,2,22,2,31, man058.jpg, cue_2.jpg,2,0.6855,1
1,1,113,2,23,1,225, man389.jpg, cue_1.jpg,1,0.9293,1
1,1,114,2,24,1,263, man462.jpg, cue_1.jpg,1,1.5803,1
1,1,115,2,25,2,208, man358.jpg, cue_2.jpg,2,0.7795,1
1,1,116,2,26,3,27, man050.jpg, cue_3.jpg,3,1.0681,1
1,1,117,2,27,3,218, man377.jpg, cue_3.jpg,3,0.9126,1
1,1,118,2,28,2,253, man443.jpg, cue_2.jpg,2,0.6173,1
1,1,119,2,29,2,159, man260.jpg, cue_2.jpg,2,1.6352,1
1,1,120,2,30,2,62, man100.jpg, cue_2.jpg,2,0.7198,1
1,1,121,2,31,1,205, man354.jpg, cue_1.jpg,3,1.0908,0
1,1,122,2,32,2,190, man326.jpg, cue_2.jpg,1,0.9831,0
1,1,123,2,33,2,244, man428.jpg, cue_2.jpg,2,1.0367,1
1,1,124,2,34,2,129, man202.jpg, cue_2.jpg,1,1.5892,0
1,1,125,2,35,3,216, man374.jpg, cue_3.jpg,3,0.5964,1
1,1,126,2,36,2,136, man212.jpg, cue_2.jpg,1,1.404,0
1,1,127,2,37,3,58, man094.jpg, cue_3.jpg,3,0.947,1
1,1,128,2,38,3,107, man165.jpg, cue_3.jpg,3,1.1958,1
1,1,129,2,39,1,109, man167.jpg, cue_1.jpg,1,1.0039,1
1,1,130,2,40,3,167, man277.jpg, cue_3.jpg,3,1.2676,1
1,1,131,2,41,3,6, man016.jpg, cue_3.jpg,3,0.752,1
1,1,132,2,42,2,19, man039.jpg, cue_2.jpg,2,0.6901,1
1,1,133,2,43,3,259, man453.jpg, cue_3.jpg,2,1.5259,0
1,1,134,2,44,1,171, man282.jpg, cue_1.jpg,1,0.9208,1
1,1,135,2,45,1,145, man242.jpg, cue_1.jpg,1,0.8993,1
1,1,136,2,46,1,132, man206.jpg, cue_1.jpg,1,0.7513,1
1,1,137,2,47,1,102, man158.jpg, cue_1.jpg,1,0.6253,1
1,1,138,2,48,3,174, man289.jpg, cue_3.jpg,1,1.9116,0
1,1,139,2,49,2,40, man068.jpg, cue_2.jpg,2,0.6502,1
1,1,140,2,50,3,15, man032.jpg, cue_3.jpg,3,0.8804,1
1,1,141,2,51,1,152, man250.jpg, cue_1.jpg,1,0.813,1
1,1,142,2,52,1,17, man035.jpg, cue_1.jpg,1,0.6206,1
1,1,143,2,53,2,191, man328.jpg, cue_2.jpg,2,1.0741,1
1,1,144,2,54,3,160, man262.jpg, cue_3.jpg,3,1.209,1
1,1,145,2,55,2,250, man436.jpg, cue_2.jpg,2,1.0797,1
1,1,146,2,56,3,175, man291.jpg, cue_3.jpg,3,1.3562,1
1,1,147,2,57,1,98, man154.jpg, cue_1.jpg,1,1.3651,1
1,1,148,2,58,2,238, man417.jpg, cue_2.jpg,2,1.0524,1
1,1,149,2,59,2,67, man107.jpg, cue_2.jpg,1,1.7147,0
1,1,150,2,60,2,59, man095.jpg, cue_2.jpg,2,1.8994,1
1,1,151,2,61,3,209, man359.jpg, cue_3.jpg,3,0.8135,1
1,1,152,2,62,3,207, man357.jpg, cue_3.jpg,3,0.9219,1
1,1,153,2,63,1,233, man410.jpg, cue_1.jpg,1,0.6466,1
1,1,154,2,64,2,34, man061.jpg, cue_2.jpg,2,0.8766,1
1,1,155,2,65,2,41, man070.jpg, cue_2.jpg,2,0.6008,1
1,1,156,2,66,2,38, man066.jpg, cue_2.jpg,1,0.593,0
1,1,157,2,67,3,80, man124.jpg, cue_3.jpg,3,1.1766,1
1,1,158,2,68,1,25, man047.jpg, cue_1.jpg,1,0.681,1
1,1,159,2,69,2,200, man345.jpg, cue_2.jpg,2,1.1975,1
1,1,160,2,70,1,144, man240.jpg, cue_1.jpg,1,0.5554,1
1,1,161,2,71,1,4, man007.jpg, cue_1.jpg,1,0.5035,1
1,1,162,2,72,3,140, man230.jpg, cue_3.jpg,3,1.108,1
1,1,163,2,73,1,148, man246.jpg, cue_1.jpg,1,0.5995,1
1,1,164,2,74,3,43, man072.jpg, cue_3.jpg,3,0.7198,1
1,1,165,2,75,2,188, man316.jpg, cue_2.jpg,1,0.5634,0
1,1,166,2,76,3,93, man141.jpg, cue_3.jpg,3,1.4209,1
1,1,167,2,77,3,245, man429.jpg, cue_3.jpg,3,1.3313,1
1,1,168,2,78,3,65, man104.jpg, cue_3.jpg,3,0.6843,1
1,1,169,2,79,3,203, man351.jpg, cue_3.jpg,2,0.7861,0
1,1,170,2,80,1,76, man120.jpg, cue_1.jpg,2,1.7787,0
1,1,171,2,81,1,37, man064.jpg, cue_1.jpg,1,1.9289,1
1,1,172,2,82,3,222, man383.jpg, cue_3.jpg,3,1.5455,1
1,1,173,2,83,3,124, man191.jpg, cue_3.jpg,3,0.7618,1
1,1,174,2,84,3,234, man412.jpg, cue_3.jpg,3,1.003,1
1,1,175,2,85,1,142, man234.jpg, cue_1.jpg,2,0.6265,0
1,1,176,2,86,2,87, man133.jpg, cue_2.jpg,2,0.8418,1
1,1,177,2,87,1,241, man423.jpg, cue_1.jpg,1,0.9841,1
1,1,178,2,88,1,147, man245.jpg, cue_1.jpg,1,0.5928,1
1,1,179,2,89,1,161, man267.jpg, cue_1.jpg,1,1.3528,1
1,1,180,2,90,3,217, man375.jpg, cue_3.jpg,2,1.7426,0
1,1,181,3,1,1,33, man060.jpg, cue_1.jpg,1,1.0383,1
1,1,182,3,2,1,145, man242.jpg, cue_1.jpg,1,0.3724,1
1,1,183,3,3,3,209, man359.jpg, cue_3.jpg,3,1.2046,1
1,1,184,3,4,1,263, man462.jpg, cue_1.jpg,1,0.4699,1
1,1,185,3,5,1,148, man246.jpg, cue_1.jpg,1,0.6597,1
1,1,186,3,6,3,93, man141.jpg, cue_3.jpg,3,0.7775,1
1,1,187,3,7,2,244, man428.jpg, cue_2.jpg,2,0.8742,1
1,1,188,3,8,2,253, man443.jpg, cue_2.jpg,2,0.7593,1
1,1,189,3,9,3,222, man383.jpg, cue_3.jpg,3,1.5127,1
1,1,190,3,10,1,79, man123.jpg, cue_1.jpg,1,1.0348,1
1,1,191,3,11,3,58, man094.jpg, cue_3.jpg,3,0.5611,1
1,1,192,3,12,2,87, man133.jpg, cue_2.jpg,2,0.4586,1
1,1,193,3,13,2,34, man061.jpg, cue_2.jpg,2,1.4973,1
1,1,194,3,14,3,20, man040.jpg, cue_3.jpg,3,0.4435,1
1,1,195,3,15,2,197, man338.jpg, cue_2.jpg,2,0.5222,1
1,1,196,3,16,1,73, man115.jpg, cue_1.jpg,1,0.822,1
1,1,197,3,17,1,37, man064.jpg, cue_1.jpg,1,0.5972,1
1,1,198,3,18,3,175, man291.jpg, cue_3.jpg,3,0.6538,1
1,1,199,3,19,2,193, man332.jpg, cue_2.jpg,2,0.5297,1
1,1,200,3,20,3,140, man230.jpg, cue_3.jpg,3,0.5273,1
1,1,201,3,21,1,132, man206.jpg, cue_1.jpg,1,0.4265,1
1,1,202,3,22,3,124, man191.jpg, cue_3.jpg,3,1.5756,1
1,1,203,3,23,2,200, man345.jpg, cue_2.jpg,2,0.4575,1
1,1,204,3,24,3,71, man112.jpg, cue_3.jpg,3,1.2077,1
1,1,205,3,25,2,67, man107.jpg, cue_2.jpg,2,0.9025,1
1,1,206,3,26,3,245, man429.jpg, cue_3.jpg,3,0.8823,1
1,1,207,3,27,2,250, man436.jpg, cue_2.jpg,2,0.5905,1
1,1,208,3,28,2,190, man326.jpg, cue_2.jpg,2,0.5038,1
1,1,209,3,29,1,4, man007.jpg, cue_1.jpg,1,0.5004,1
1,1,210,3,30,1,84, man129.jpg, cue_1.jpg,1,0.7181,1
1,1,211,3,31,2,159, man260.jpg, cue_2.jpg,2,0.5328,1
1,1,212,3,32,3,65, man104.jpg, cue_3.jpg,3,0.4637,1
1,1,213,3,33,1,205, man354.jpg, cue_1.jpg,1,0.7162,1
1,1,214,3,34,1,144, man240.jpg, cue_1.jpg,1,0.5293,1
1,1,215,3,35,3,204, man352.jpg, cue_3.jpg,3,0.5885,1
1,1,216,3,36,1,25, man047.jpg, cue_1.jpg,1,0.3403,1
1,1,217,3,37,2,100, man156.jpg, cue_2.jpg,2,0.6652,1
1,1,218,3,38,3,207, man357.jpg, cue_3.jpg,3,0.7664,1
1,1,219,3,39,1,61, man099.jpg, cue_1.jpg,1,1.0231,1
1,1,220,3,40,2,40, man068.jpg, cue_2.jpg,2,0.534,1
1,1,221,3,41,2,59, man095.jpg, cue_2.jpg,2,0.529,1
1,1,222,3,42,2,208, man358.jpg, cue_2.jpg,2,1.0363,1
1,1,223,3,43,3,27, man050.jpg, cue_3.jpg,3,1.4906,1
1,1,224,3,44,1,109, man167.jpg, cue_1.jpg,1,0.5966,1
1,1,225,3,45,1,225, man389.jpg, cue_1.jpg,1,0.6863,1
1,1,226,3,46,3,6, man016.jpg, cue_3.jpg,3,0.8022,1
1,1,227,3,47,1,161, man267.jpg, cue_1.jpg,1,0.9463,1
1,1,228,3,48,1,147, man245.jpg, cue_1.jpg,1,0.4284,1
1,1,229,3,49,1,241, man423.jpg, cue_1.jpg,1,0.5234,1
1,1,230,3,50,3,162, man268.jpg, cue_3.jpg,3,0.6468,1
1,1,231,3,51,2,134, man208.jpg, cue_2.jpg,2,0.4766,1
1,1,232,3,52,1,98, man154.jpg, cue_1.jpg,1,1.0333,1
1,1,233,3,53,1,111, man169.jpg, cue_1.jpg,1,0.4151,1
1,1,234,3,54,3,107, man165.jpg, cue_3.jpg,3,0.5427,1
1,1,235,3,55,2,136, man212.jpg, cue_2.jpg,2,0.649,1
1,1,236,3,56,1,76, man120.jpg, cue_1.jpg,1,1.5833,1
1,1,237,3,57,3,160, man262.jpg, cue_3.jpg,3,0.8619,1
1,1,238,3,58,2,49, man082.jpg, cue_2.jpg,2,0.5387,1
1,1,239,3,59,2,38, man066.jpg, cue_2.jpg,1,0.5975,0
1,1,240,3,60,2,188, man316.jpg, cue_2.jpg,2,0.9738,1
1,1,241,3,61,2,211, man361.jpg, cue_2.jpg,2,0.6145,1
1,1,242,3,62,2,31, man058.jpg, cue_2.jpg,2,0.43,1
1,1,243,3,63,2,41, man070.jpg, cue_2.jpg,2,0.4935,1
1,1,244,3,64,1,233, man410.jpg, cue_1.jpg,1,0.5541,1
1,1,245,3,65,1,56, man092.jpg, cue_1.jpg,1,1.7167,1
1,1,246,3,66,3,80, man124.jpg, cue_3.jpg,3,0.4613,1
1,1,247,3,67,2,19, man039.jpg, cue_2.jpg,2,0.4755,1
1,1,248,3,68,3,203, man351.jpg, cue_3.jpg,1,1.3375,0
1,1,249,3,69,3,167, man277.jpg, cue_3.jpg,3,1.2352,1
1,1,250,3,70,3,43, man072.jpg, cue_3.jpg,3,0.6889,1
1,1,251,3,71,2,165, man275.jpg, cue_2.jpg,2,0.851,1
1,1,252,3,72,1,142, man234.jpg, cue_1.jpg,2,0.8837,0
1,1,253,3,73,2,129, man202.jpg, cue_2.jpg,2,0.5921,1
1,1,254,3,74,1,17, man035.jpg, cue_1.jpg,1,0.6951,1
1,1,255,3,75,1,171, man282.jpg, cue_1.jpg,1,0.4937,1
1,1,256,3,76,3,218, man377.jpg, cue_3.jpg,3,0.618,1
1,1,257,3,77,3,234, man412.jpg, cue_3.jpg,3,0.9139,1
1,1,258,3,78,1,267, man466.jpg, cue_1.jpg,1,0.7169,1
1,1,259,3,79,3,15, man032.jpg, cue_3.jpg,3,0.6564,1
1,1,260,3,80,1,152, man250.jpg, cue_1.jpg,1,0.5031,1
1,1,261,3,81,2,10, man024.jpg, cue_2.jpg,2,0.4354,1
1,1,262,3,82,3,174, man289.jpg, cue_3.jpg,3,1.043,1
1,1,263,3,83,3,137, man221.jpg, cue_3.jpg,3,0.761,1
1,1,264,3,84,2,62, man100.jpg, cue_2.jpg,2,0.5378,1
1,1,265,3,85,2,238, man417.jpg, cue_2.jpg,2,1.2663,1
1,1,266,3,86,2,191, man328.jpg, cue_2.jpg,2,0.6574,1
1,1,267,3,87,3,259, man453.jpg, cue_3.jpg,3,0.8072,1
1,1,268,3,88,3,216, man374.jpg, cue_3.jpg,3,0.5991,1
1,1,269,3,89,1,102, man158.jpg, cue_1.jpg,1,0.6236,1
1,1,270,3,90,3,217, man375.jpg, cue_3.jpg,3,0.9513,1
1,1,271,4,1,3,6, man016.jpg, cue_3.jpg,3,0.9257,1
1,1,272,4,2,2,129, man202.jpg, cue_2.jpg,2,0.4563,1
1,1,273,4,3,1,144, man240.jpg, cue_1.jpg,1,0.5994,1
1,1,274,4,4,3,71, man112.jpg, cue_3.jpg,3,0.7199,1
1,1,275,4,5,1,17, man035.jpg, cue_1.jpg,1,0.4496,1
1,1,276,4,6,1,205, man354.jpg, cue_1.jpg,1,0.9286,1
1,1,277,4,7,2,40, man068.jpg, cue_2.jpg,2,0.3629,1
1,1,278,4,8,2,208, man358.jpg, cue_2.jpg,2,0.4293,1
1,1,279,4,9,2,67, man107.jpg, cue_2.jpg,2,0.3651,1
1,1,280,4,10,2,159, man260.jpg, cue_2.jpg,2,0.5103,1
1,1,281,4,11,2,87, man133.jpg, cue_2.jpg,2,0.5542,1
1,1,282,4,12,3,20, man040.jpg, cue_3.jpg,3,0.4049,1
1,1,283,4,13,1,84, man129.jpg, cue_1.jpg,1,0.6769,1
1,1,284,4,14,2,188, man316.jpg, cue_2.jpg,2,0.3939,1
1,1,285,4,15,3,217, man375.jpg, cue_3.jpg,3,0.8747,1
1,1,286,4,16,3,174, man289.jpg, cue_3.jpg,3,0.8073,1
1,1,287,4,17,1,152, man250.jpg, cue_1.jpg,1,0.471,1
1,1,288,4,18,2,41, man070.jpg, cue_2.jpg,2,0.3884,1
1,1,289,4,19,3,234, man412.jpg, cue_3.jpg,3,0.3254,1
1,1,290,4,20,2,19, man039.jpg, cue_2.jpg,2,0.3611,1
1,1,291,4,21,3,259, man453.jpg, cue_3.jpg,3,0.7791,1
1,1,292,4,22,1,142, man234.jpg, cue_1.jpg,1,0.4921,1
1,1,293,4,23,1,132, man206.jpg, cue_1.jpg,1,0.569,1
1,1,294,4,24,3,137, man221.jpg, cue_3.jpg,3,1.0106,1
1,1,295,4,25,2,253, man443.jpg, cue_2.jpg,2,0.5065,1
1,1,296,4,26,1,111, man169.jpg, cue_1.jpg,1,0.4389,1
1,1,297,4,27,1,109, man167.jpg, cue_1.jpg,1,0.6774,1
1,1,298,4,28,1,225, man389.jpg, cue_1.jpg,1,0.7467,1
1,1,299,4,29,2,200, man345.jpg, cue_2.jpg,2,0.6042,1
1,1,300,4,30,1,33, man060.jpg, cue_1.jpg,1,0.5309,1
1,1,301,4,31,1,263, man462.jpg, cue_1.jpg,1,0.4638,1
1,1,302,4,32,3,15, man032.jpg, cue_3.jpg,3,0.6857,1
1,1,303,4,33,1,267, man466.jpg, cue_1.jpg,1,0.7532,1
1,1,304,4,34,2,211, man361.jpg, cue_2.jpg,2,0.3728,1
1,1,305,4,35,3,93, man141.jpg, cue_3.jpg,3,0.407,1
1,1,306,4,36,3,216, man374.jpg, cue_3.jpg,3,0.4535,1
1,1,307,4,37,1,145, man242.jpg, cue_1.jpg,1,0.47,1
1,1,308,4,38,2,244, man428.jpg, cue_2.jpg,2,0.6596,1
1,1,309,4,39,1,56, man092.jpg, cue_1.jpg,1,0.6969,1
1,1,310,4,40,1,76, man120.jpg, cue_1.jpg,1,1.4211,1
1,1,311,4,41,1,241, man423.jpg, cue_1.jpg,1,0.5313,1
1,1,312,4,42,2,31, man058.jpg, cue_2.jpg,2,0.3022,1
1,1,313,4,43,2,49, man082.jpg, cue_2.jpg,2,0.4356,1
1,1,314,4,44,1,171, man282.jpg, cue_1.jpg,1,0.5306,1
1,1,315,4,45,2,62, man100.jpg, cue_2.jpg,2,0.5091,1
1,1,316,4,46,1,148, man246.jpg, cue_1.jpg,1,0.7769,1
1,1,317,4,47,3,27, man050.jpg, cue_3.jpg,3,0.5218,1
1,1,318,4,48,2,190, man326.jpg, cue_2.jpg,2,0.6131,1
1,1,319,4,49,3,218, man377.jpg, cue_3.jpg,3,0.7962,1
1,1,320,4,50,3,43, man072.jpg, cue_3.jpg,3,0.588,1
1,1,321,4,51,3,160, man262.jpg, cue_3.jpg,3,0.7085,1
1,1,322,4,52,3,203, man351.jpg, cue_3.jpg,1,0.7927,0
1,1,323,4,53,3,140, man230.jpg, cue_3.jpg,3,0.6009,1
1,1,324,4,54,2,136, man212.jpg, cue_2.jpg,2,0.4339,1
1,1,325,4,55,2,134, man208.jpg, cue_2.jpg,1,0.7046,0
1,1,326,4,56,3,80, man124.jpg, cue_3.jpg,3,0.4979,1
1,1,327,4,57,2,10, man024.jpg, cue_2.jpg,2,0.4658,1
1,1,328,4,58,1,102, man158.jpg, cue_1.jpg,1,0.4637,1
1,1,329,4,59,1,98, man154.jpg, cue_1.jpg,1,0.4263,1
1,1,330,4,60,2,165, man275.jpg, cue_2.jpg,2,0.5894,1
1,1,331,4,61,2,197, man338.jpg, cue_2.jpg,2,0.406,1
1,1,332,4,62,2,250, man436.jpg, cue_2.jpg,2,0.3234,1
1,1,333,4,63,1,61, man099.jpg, cue_1.jpg,1,0.9381,1
1,1,334,4,64,3,124, man191.jpg, cue_3.jpg,3,0.7882,1
1,1,335,4,65,1,147, man245.jpg, cue_1.jpg,1,0.4049,1
1,1,336,4,66,3,107, man165.jpg, cue_3.jpg,3,0.6935,1
1,1,337,4,67,2,238, man417.jpg, cue_2.jpg,2,0.3774,1
1,1,338,4,68,3,204, man352.jpg, cue_3.jpg,3,1.6075,1
1,1,339,4,69,1,4, man007.jpg, cue_1.jpg,1,0.4096,1
1,1,340,4,70,3,58, man094.jpg, cue_3.jpg,3,0.6492,1
1,1,341,4,71,2,100, man156.jpg, cue_2.jpg,2,1.311,1
1,1,342,4,72,3,245, man429.jpg, cue_3.jpg,3,0.5213,1
1,1,343,4,73,2,38, man066.jpg, cue_2.jpg,2,1.139,1
1,1,344,4,74,2,193, man332.jpg, cue_2.jpg,2,0.3587,1
1,1,345,4,75,2,59, man095.jpg, cue_2.jpg,2,0.3926,1
1,1,346,4,76,1,37, man064.jpg, cue_1.jpg,1,0.6162,1
1,1,347,4,77,2,191, man328.jpg, cue_2.jpg,2,0.6253,1
1,1,348,4,78,2,34, man061.jpg, cue_2.jpg,2,1.8807,1
1,1,349,4,79,3,207, man357.jpg, cue_3.jpg,3,0.8437,1
1,1,350,4,80,1,79, man123.jpg, cue_1.jpg,1,0.6494,1
1,1,351,4,81,3,162, man268.jpg, cue_3.jpg,3,0.4609,1
1,1,352,4,82,3,167, man277.jpg, cue_3.jpg,3,0.4936,1
1,1,353,4,83,1,233, man410.jpg, cue_1.jpg,1,0.6017,1
1,1,354,4,84,3,175, man291.jpg, cue_3.jpg,3,0.4952,1
1,1,355,4,85,3,209, man359.jpg, cue_3.jpg,3,0.4308,1
1,1,356,4,86,3,222, man383.jpg, cue_3.jpg,3,0.6376,1
1,1,357,4,87,1,161, man267.jpg, cue_1.jpg,1,0.5934,1
1,1,358,4,88,3,65, man104.jpg, cue_3.jpg,3,0.5081,1
1,1,359,4,89,1,25, man047.jpg, cue_1.jpg,1,0.3448,1
1,1,360,4,90,1,73, man115.jpg, cue_1.jpg,1,1.0669,1
2,2,1,1,1,3,14, man031.jpg, cue_3.jpg,7,0,0
2,2,2,1,2,1,96, man149.jpg, cue_1.jpg,1,1.3715,1
2,2,3,1,3,2,89, man136.jpg, cue_2.jpg,3,0.3875,0
2,2,4,1,4,2,240, man422.jpg, cue_2.jpg,2,0.5163,1
2,2,5,1,5,2,25, man047.jpg, cue_2.jpg,2,0.5755,1
2,2,6,1,6,1,195, man336.jpg, cue_1.jpg,1,0.7126,1
2,2,7,1,7,2,196, man337.jpg, cue_2.jpg,2,0.6491,1
2,2,8,1,8,2,130, man203.jpg, cue_2.jpg,2,0.6418,1
2,2,9,1,9,3,142, man234.jpg, cue_3.jpg,2,0.6327,0
2,2,10,1,10,1,76, man120.jpg, cue_1.jpg,1,0.5094,1
2,2,11,1,11,3,134, man208.jpg, cue_3.jpg,2,0.6191,0
2,2,12,1,12,2,205, man354.jpg, cue_2.jpg,2,0.6588,1
2,2,13,1,13,2,145, man242.jpg, cue_2.jpg,2,0.6011,1
2,2,14,1,14,3,83, man128.jpg, cue_3.jpg,3,0.5296,1
2,2,15,1,15,1,150, man248.jpg, cue_1.jpg,1,0.5889,1
2,2,16,1,16,2,1, man002.jpg, cue_2.jpg,3,0.758,0
2,2,17,1,17,2,141, man233.jpg, cue_2.jpg,2,0.5681,1
2,2,18,1,18,1,32, man059.jpg, cue_1.jpg,1,0.786,1
2,2,19,1,19,1,46, man077.jpg, cue_1.jpg,1,0.4344,1
2,2,20,1,20,2,204, man352.jpg, cue_2.jpg,2,0.4978,1
2,2,21,1,21,1,268, man467.jpg, cue_1.jpg,1,0.4305,1
2,2,22,1,22,1,21, man041.jpg, cue_1.jpg,2,0.5902,0
2,2,23,1,23,3,146, man244.jpg, cue_3.jpg,2,0.5031,0
2,2,24,1,24,3,266, man465.jpg, cue_3.jpg,3,0.7877,1
2,2,25,1,25,3,102, man158.jpg, cue_3.jpg,3,0.5477,1
2,2,26,1,26,1,250, man436.jpg, cue_1.jpg,2,0.4301,0
2,2,27,1,27,1,65, man104.jpg, cue_1.jpg,1,0.4935,1
2,2,28,1,28,1,119, man186.jpg, cue_1.jpg,1,0.5543,1
2,2,29,1,29,1,243, man427.jpg, cue_1.jpg,1,0.4368,1
2,2,30,1,30,1,42, man071.jpg, cue_1.jpg,2,0.628,0
2,2,31,1,31,3,90, man137.jpg, cue_3.jpg,2,0.6512,0
2,2,32,1,32,1,34, man061.jpg, cue_1.jpg,1,0.5296,1
2,2,33,1,33,3,156, man257.jpg, cue_3.jpg,3,0.4286,1
2,2,34,1,34,3,164, man273.jpg, cue_3.jpg,1,0.4756,0
2,2,35,1,35,1,2, man004.jpg, cue_1.jpg,2,0.4721,0
2,2,36,1,36,1,218, man377.jpg, cue_1.jpg,1,0.3741,1
2,2,37,1,37,2,222, man383.jpg, cue_2.jpg,2,0.4718,1
2,2,38,1,38,2,69, man110.jpg, cue_2.jpg,2,0.4384,1
2,2,39,1,39,2,140, man230.jpg, cue_2.jpg,2,0.7256,1
2,2,40,1,40,3,50, man084.jpg, cue_3.jpg,1,0.5373,0
2,2,41,1,41,1,157, man258.jpg, cue_1.jpg,1,0.5644,1
2,2,42,1,42,1,166, man276.jpg, cue_1.jpg,1,0.3816,1
2,2,43,1,43,2,78, man122.jpg, cue_2.jpg,2,0.6703,1
2,2,44,1,44,3,19, man039.jpg, cue_3.jpg,1,0.8035,0
2,2,45,1,45,3,213, man366.jpg, cue_3.jpg,3,0.4355,1
2,2,46,1,46,3,193, man332.jpg, cue_3.jpg,3,0.386,1
2,2,47,1,47,2,92, man139.jpg, cue_2.jpg,1,0.6596,0
2,2,48,1,48,2,86, man131.jpg, cue_2.jpg,1,0.6169,0
2,2,49,1,49,3,227, man392.jpg, cue_3.jpg,1,0.433,0
2,2,50,1,50,1,87, man133.jpg, cue_1.jpg,1,0.5283,1
2,2,51,1,51,3,79, man123.jpg, cue_3.jpg,3,0.7476,1
2,2,52,1,52,2,190, man326.jpg, cue_2.jpg,2,0.637,1
2,2,53,1,53,3,70, man111.jpg, cue_3.jpg,3,0.98,1
2,2,54,1,54,2,242, man424.jpg, cue_2.jpg,2,0.5853,1
2,2,55,1,55,1,11, man025.jpg, cue_1.jpg,1,0.4208,1
2,2,56,1,56,1,165, man275.jpg, cue_1.jpg,2,0.4369,0
2,2,57,1,57,3,93, man141.jpg, cue_3.jpg,3,0.4972,1
2,2,58,1,58,3,155, man255.jpg, cue_3.jpg,2,0.7682,0
2,2,59,1,59,2,107, man165.jpg, cue_2.jpg,2,0.4015,1
2,2,60,1,60,3,82, man126.jpg, cue_3.jpg,3,0.4314,1
2,2,61,1,61,1,61, man099.jpg, cue_1.jpg,1,0.5298,1
2,2,62,1,62,1,4, man007.jpg, cue_1.jpg,1,0.9088,1
2,2,63,1,63,3,55, man091.jpg, cue_3.jpg,2,0.5996,0
2,2,64,1,64,2,3, man005.jpg, cue_2.jpg,2,0.5765,1
2,2,65,1,65,2,12, man027.jpg, cue_2.jpg,2,0.5536,1
2,2,66,1,66,1,221, man382.jpg, cue_1.jpg,1,0.4835,1
2,2,67,1,67,2,159, man260.jpg, cue_2.jpg,2,0.4161,1
2,2,68,1,68,2,169, man279.jpg, cue_2.jpg,1,0.6563,0
2,2,69,1,69,2,188, man316.jpg, cue_2.jpg,2,0.3744,1
2,2,70,1,70,1,10, man024.jpg, cue_1.jpg,2,0.6478,0
2,2,71,1,71,3,217, man375.jpg, cue_3.jpg,2,0.4302,0
2,2,72,1,72,3,200, man345.jpg, cue_3.jpg,1,0.7817,0
2,2,73,1,73,3,41, man070.jpg, cue_3.jpg,2,0.7185,0
2,2,74,1,74,3,158, man259.jpg, cue_3.jpg,1,0.7862,0
2,2,75,1,75,3,7, man017.jpg, cue_3.jpg,2,0.6586,0
2,2,76,1,76,3,45, man076.jpg, cue_3.jpg,3,0.4411,1
2,2,77,1,77,1,206, man355.jpg, cue_1.jpg,1,0.5045,1
2,2,78,1,78,1,264, man463.jpg, cue_1.jpg,2,0.5805,0
2,2,79,1,79,2,104, man161.jpg, cue_2.jpg,2,0.4614,1
2,2,80,1,80,2,265, man464.jpg, cue_2.jpg,2,0.6516,1
2,2,81,1,81,3,13, man029.jpg, cue_3.jpg,3,0.513,1
2,2,82,1,82,3,54, man089.jpg, cue_3.jpg,3,0.6212,1
2,2,83,1,83,2,136, man212.jpg, cue_2.jpg,2,0.4047,1
2,2,84,1,84,1,256, man447.jpg, cue_1.jpg,1,0.5489,1
2,2,85,1,85,1,228, man396.jpg, cue_1.jpg,1,0.6233,1
2,2,86,1,86,2,267, man466.jpg, cue_2.jpg,2,0.5185,1
2,2,87,1,87,1,114, man174.jpg, cue_1.jpg,1,0.8337,1
2,2,88,1,88,3,121, man188.jpg, cue_3.jpg,2,0.5602,0
2,2,89,1,89,2,132, man206.jpg, cue_2.jpg,2,0.5513,1
2,2,90,1,90,2,6, man016.jpg, cue_2.jpg,1,0.7886,0
2,2,91,2,1,2,204, man352.jpg, cue_2.jpg,2,0.3547,1
2,2,92,2,2,1,21, man041.jpg, cue_1.jpg,1,0.3736,1
2,2,93,2,3,2,132, man206.jpg, cue_2.jpg,2,0.3589,1
2,2,94,2,4,3,102, man158.jpg, cue_3.jpg,3,0.2779,1
2,2,95,2,5,2,78, man122.jpg, cue_2.jpg,2,0.6377,1
2,2,96,2,6,2,196, man337.jpg, cue_2.jpg,1,0.4042,0
2,2,97,2,7,3,19, man039.jpg, cue_3.jpg,3,0.4526,1
2,2,98,2,8,2,136, man212.jpg, cue_2.jpg,2,0.4189,1
2,2,99,2,9,2,222, man383.jpg, cue_2.jpg,2,0.4183,1
2,2,100,2,10,1,61, man099.jpg, cue_1.jpg,1,0.658,1
2,2,101,2,11,1,4, man007.jpg, cue_1.jpg,1,0.3446,1
2,2,102,2,12,1,119, man186.jpg, cue_1.jpg,1,0.603,1
2,2,103,2,13,2,141, man233.jpg, cue_2.jpg,2,0.3867,1
2,2,104,2,14,2,3, man005.jpg, cue_2.jpg,2,0.4194,1
2,2,105,2,15,2,240, man422.jpg, cue_2.jpg,2,0.3075,1
2,2,106,2,16,3,82, man126.jpg, cue_3.jpg,3,0.3125,1
2,2,107,2,17,2,267, man466.jpg, cue_2.jpg,2,0.3163,1
2,2,108,2,18,1,228, man396.jpg, cue_1.jpg,1,0.3686,1
2,2,109,2,19,1,221, man382.jpg, cue_1.jpg,1,0.2578,1
2,2,110,2,20,1,42, man071.jpg, cue_1.jpg,1,0.665,1
2,2,111,2,21,1,166, man276.jpg, cue_1.jpg,1,0.3351,1
2,2,112,2,22,3,227, man392.jpg, cue_3.jpg,3,0.4663,1
2,2,113,2,23,3,155, man255.jpg, cue_3.jpg,3,0.304,1
2,2,114,2,24,2,159, man260.jpg, cue_2.jpg,2,0.2453,1
2,2,115,2,25,3,7, man017.jpg, cue_3.jpg,3,0.3645,1
2,2,116,2,26,1,264, man463.jpg, cue_1.jpg,1,0.4435,1
2,2,117,2,27,2,86, man131.jpg, cue_2.jpg,2,0.3481,1
2,2,118,2,28,1,268, man467.jpg, cue_1.jpg,1,0.3501,1
2,2,119,2,29,2,1, man002.jpg, cue_2.jpg,2,0.352,1
2,2,120,2,30,3,50, man084.jpg, cue_3.jpg,3,0.4353,1
2,2,121,2,31,3,121, man188.jpg, cue_3.jpg,3,0.6101,1
2,2,122,2,32,3,41, man070.jpg, cue_3.jpg,3,0.3616,1
2,2,123,2,33,3,79, man123.jpg, cue_3.jpg,3,0.5879,1
2,2,124,2,34,3,164, man273.jpg, cue_3.jpg,3,0.3731,1
2,2,125,2,35,1,243, man427.jpg, cue_1.jpg,1,0.4392,1
2,2,126,2,36,1,11, man025.jpg, cue_1.jpg,1,0.3259,1
2,2,127,2,37,1,218, man377.jpg, cue_1.jpg,1,0.2811,1
2,2,128,2,38,3,14, man031.jpg, cue_3.jpg,3,0.7188,1
2,2,129,2,39,1,32, man059.jpg, cue_1.jpg,3,0.2741,0
2,2,130,2,40,3,200, man345.jpg, cue_3.jpg,3,0.3446,1
2,2,131,2,41,3,156, man257.jpg, cue_3.jpg,3,0.6028,1
2,2,132,2,42,1,250, man436.jpg, cue_1.jpg,2,0.5952,0
2,2,133,2,43,2,25, man047.jpg, cue_2.jpg,2,0.4429,1
2,2,134,2,44,1,256, man447.jpg, cue_1.jpg,1,0.5858,1
2,2,135,2,45,2,130, man203.jpg, cue_2.jpg,2,0.4669,1
2,2,136,2,46,1,96, man149.jpg, cue_1.jpg,1,0.32,1
2,2,137,2,47,3,55, man091.jpg, cue_3.jpg,3,0.4364,1
2,2,138,2,48,1,206, man355.jpg, cue_1.jpg,1,0.4679,1
2,2,139,2,49,3,142, man234.jpg, cue_3.jpg,3,0.5937,1
2,2,140,2,50,2,265, man464.jpg, cue_2.jpg,2,0.4261,1
2,2,141,2,51,1,76, man120.jpg, cue_1.jpg,1,0.4408,1
2,2,142,2,52,3,146, man244.jpg, cue_3.jpg,2,0.5045,0
2,2,143,2,53,1,157, man258.jpg, cue_1.jpg,1,0.501,1
2,2,144,2,54,3,83, man128.jpg, cue_3.jpg,3,0.4018,1
2,2,145,2,55,3,158, man259.jpg, cue_3.jpg,2,0.4816,0
2,2,146,2,56,2,140, man230.jpg, cue_2.jpg,2,0.4311,1
2,2,147,2,57,3,213, man366.jpg, cue_3.jpg,2,1.1023,0
2,2,148,2,58,3,93, man141.jpg, cue_3.jpg,3,0.4021,1
2,2,149,2,59,2,190, man326.jpg, cue_2.jpg,2,0.4667,1
2,2,150,2,60,1,34, man061.jpg, cue_1.jpg,1,0.8168,1
2,2,151,2,61,1,195, man336.jpg, cue_1.jpg,1,0.4,1
2,2,152,2,62,1,87, man133.jpg, cue_1.jpg,1,0.3522,1
2,2,153,2,63,3,90, man137.jpg, cue_3.jpg,3,0.4825,1
2,2,154,2,64,2,242, man424.jpg, cue_2.jpg,2,0.3995,1
2,2,155,2,65,2,89, man136.jpg, cue_2.jpg,3,0.5118,0
2,2,156,2,66,2,145, man242.jpg, cue_2.jpg,2,0.3957,1
2,2,157,2,67,2,188, man316.jpg, cue_2.jpg,2,0.3646,1
2,2,158,2,68,1,10, man024.jpg, cue_1.jpg,1,0.5588,1
2,2,159,2,69,2,107, man165.jpg, cue_2.jpg,2,0.3924,1
2,2,160,2,70,3,217, man375.jpg, cue_3.jpg,3,0.3933,1
2,2,161,2,71,2,169, man279.jpg, cue_2.jpg,2,0.3941,1
2,2,162,2,72,2,205, man354.jpg, cue_2.jpg,2,0.3612,1
2,2,163,2,73,2,104, man161.jpg, cue_2.jpg,2,0.2845,1
2,2,164,2,74,1,2, man004.jpg, cue_1.jpg,3,0.4343,0
2,2,165,2,75,1,165, man275.jpg, cue_1.jpg,1,0.5906,1
2,2,166,2,76,3,54, man089.jpg, cue_3.jpg,3,0.3621,1
2,2,167,2,77,3,70, man111.jpg, cue_3.jpg,3,0.3962,1
2,2,168,2,78,1,114, man174.jpg, cue_1.jpg,1,0.4285,1
2,2,169,2,79,3,134, man208.jpg, cue_3.jpg,3,0.4758,1
2,2,170,2,80,3,193, man332.jpg, cue_3.jpg,3,0.3124,1
2,2,171,2,81,2,69, man110.jpg, cue_2.jpg,2,0.3007,1
2,2,172,2,82,1,65, man104.jpg, cue_1.jpg,1,0.4496,1
2,2,173,2,83,3,45, man076.jpg, cue_3.jpg,3,0.3998,1
2,2,174,2,84,2,12, man027.jpg, cue_2.jpg,3,0.3368,0
2,2,175,2,85,3,266, man465.jpg, cue_3.jpg,3,0.4041,1
2,2,176,2,86,2,92, man139.jpg, cue_2.jpg,1,0.629,0
2,2,177,2,87,2,6, man016.jpg, cue_2.jpg,2,0.4918,1
2,2,178,2,88,1,150, man248.jpg, cue_1.jpg,1,0.4246,1
2,2,179,2,89,1,46, man077.jpg, cue_1.jpg,1,0.2807,1
2,2,180,2,90,3,13, man029.jpg, cue_3.jpg,3,0.4625,1
2,2,181,3,1,2,132, man206.jpg, cue_2.jpg,2,0.1999,1
2,2,182,3,2,3,7, man017.jpg, cue_3.jpg,3,0.3843,1
2,2,183,3,3,3,193, man332.jpg, cue_3.jpg,3,0.3059,1
2,2,184,3,4,3,213, man366.jpg, cue_3.jpg,3,0.2788,1
2,2,185,3,5,2,141, man233.jpg, cue_2.jpg,2,0.2684,1
2,2,186,3,6,1,268, man467.jpg, cue_1.jpg,1,0.2087,1
2,2,187,3,7,1,166, man276.jpg, cue_1.jpg,1,0.2187,1
2,2,188,3,8,1,61, man099.jpg, cue_1.jpg,1,0.3074,1
2,2,189,3,9,2,6, man016.jpg, cue_2.jpg,2,0.4235,1
2,2,190,3,10,3,83, man128.jpg, cue_3.jpg,3,0.231,1
2,2,191,3,11,3,266, man465.jpg, cue_3.jpg,3,0.702,1
2,2,192,3,12,1,256, man447.jpg, cue_1.jpg,1,0.2899,1
2,2,193,3,13,2,92, man139.jpg, cue_2.jpg,2,0.4228,1
2,2,194,3,14,1,65, man104.jpg, cue_1.jpg,1,0.2466,1
2,2,195,3,15,2,267, man466.jpg, cue_2.jpg,2,0.2379,1
2,2,196,3,16,2,265, man464.jpg, cue_2.jpg,2,0.2423,1
2,2,197,3,17,3,102, man158.jpg, cue_3.jpg,3,0.2688,1
2,2,198,3,18,3,217, man375.jpg, cue_3.jpg,3,0.2751,1
2,2,199,3,19,2,1, man002.jpg, cue_2.jpg,2,0.2943,1
2,2,200,3,20,3,82, man126.jpg, cue_3.jpg,3,0.2213,1
2,2,201,3,21,3,55, man091.jpg, cue_3.jpg,3,0.2137,1
2,2,202,3,22,3,156, man257.jpg, cue_3.jpg,3,0.3022,1
2,2,203,3,23,3,45, man076.jpg, cue_3.jpg,3,0.2112,1
2,2,204,3,24,3,50, man084.jpg, cue_3.jpg,3,0.2036,1
2,2,205,3,25,1,264, man463.jpg, cue_1.jpg,1,0.2771,1
2,2,206,3,26,1,42, man071.jpg, cue_1.jpg,1,0.2651,1
2,2,207,3,27,2,145, man242.jpg, cue_2.jpg,2,0.3371,1
2,2,208,3,28,1,21, man041.jpg, cue_1.jpg,1,0.2446,1
2,2,209,3,29,3,164, man273.jpg, cue_3.jpg,3,0.2037,1
2,2,210,3,30,2,3, man005.jpg, cue_2.jpg,2,0.3244,1
2,2,211,3,31,1,157, man258.jpg, cue_1.jpg,1,0.2487,1
2,2,212,3,32,1,96, man149.jpg, cue_1.jpg,1,0.2076,1
2,2,213,3,33,1,250, man436.jpg, cue_1.jpg,1,0.3771,1
2,2,214,3,34,2,130, man203.jpg, cue_2.jpg,1,0.5546,0
2,2,215,3,35,2,89, man136.jpg, cue_2.jpg,2,0.341,1
2,2,216,3,36,1,4, man007.jpg, cue_1.jpg,1,0.4087,1
2,2,217,3,37,1,2, man004.jpg, cue_1.jpg,1,0.3287,1
2,2,218,3,38,1,34, man061.jpg, cue_1.jpg,1,0.2685,1
2,2,219,3,39,3,90, man137.jpg, cue_3.jpg,3,0.2562,1
2,2,220,3,40,3,158, man259.jpg, cue_3.jpg,3,0.4733,1
2,2,221,3,41,1,32, man059.jpg, cue_1.jpg,3,0.4393,0
2,2,222,3,42,2,240, man422.jpg, cue_2.jpg,2,0.2758,1
2,2,223,3,43,3,41, man070.jpg, cue_3.jpg,3,0.2837,1
2,2,224,3,44,1,10, man024.jpg, cue_1.jpg,1,0.4973,1
2,2,225,3,45,1,228, man396.jpg, cue_1.jpg,1,0.2533,1
2,2,226,3,46,1,76, man120.jpg, cue_1.jpg,1,0.1956,1
2,2,227,3,47,2,169, man279.jpg, cue_2.jpg,2,0.3011,1
2,2,228,3,48,2,159, man260.jpg, cue_2.jpg,2,0.2248,1
2,2,229,3,49,2,196, man337.jpg, cue_2.jpg,2,0.425,1
2,2,230,3,50,2,140, man230.jpg, cue_2.jpg,2,0.3605,1
2,2,231,3,51,3,70, man111.jpg, cue_3.jpg,3,0.2987,1
2,2,232,3,52,1,218, man377.jpg, cue_1.jpg,1,0.3978,1
2,2,233,3,53,3,79, man123.jpg, cue_3.jpg,3,0.4644,1
2,2,234,3,54,2,86, man131.jpg, cue_2.jpg,2,0.2859,1
2,2,235,3,55,3,121, man188.jpg, cue_3.jpg,3,0.4652,1
2,2,236,3,56,3,54, man089.jpg, cue_3.jpg,3,0.1928,1
2,2,237,3,57,2,12, man027.jpg, cue_2.jpg,2,0.426,1
2,2,238,3,58,1,206, man355.jpg, cue_1.jpg,1,0.2014,1
2,2,239,3,59,1,195, man336.jpg, cue_1.jpg,1,0.3221,1
2,2,240,3,60,2,78, man122.jpg, cue_2.jpg,2,0.3423,1
2,2,241,3,61,2,204, man352.jpg, cue_2.jpg,2,0.2649,1
2,2,242,3,62,3,227, man392.jpg, cue_3.jpg,3,0.2716,1
2,2,243,3,63,3,13, man029.jpg, cue_3.jpg,3,0.2461,1
2,2,244,3,64,3,142, man234.jpg, cue_3.jpg,3,0.2693,1
2,2,245,3,65,3,155, man255.jpg, cue_3.jpg,3,0.2414,1
2,2,246,3,66,3,200, man345.jpg, cue_3.jpg,3,0.2668,1
2,2,247,3,67,3,134, man208.jpg, cue_3.jpg,3,0.209,1
2,2,248,3,68,1,165, man275.jpg, cue_1.jpg,2,0.2975,0
2,2,249,3,69,2,242, man424.jpg, cue_2.jpg,2,0.2541,1
2,2,250,3,70,2,190, man326.jpg, cue_2.jpg,2,0.2922,1
2,2,251,3,71,2,25, man047.jpg, cue_2.jpg,2,0.2973,1
2,2,252,3,72,2,222, man383.jpg, cue_2.jpg,2,0.3664,1
2,2,253,3,73,1,46, man077.jpg, cue_1.jpg,1,0.2726,1
2,2,254,3,74,1,87, man133.jpg, cue_1.jpg,1,0.2791,1
2,2,255,3,75,2,69, man110.jpg, cue_2.jpg,2,0.4258,1
2,2,256,3,76,2,104, man161.jpg, cue_2.jpg,2,0.3155,1
2,2,257,3,77,3,146, man244.jpg, cue_3.jpg,3,0.3998,1
2,2,258,3,78,2,136, man212.jpg, cue_2.jpg,2,0.4646,1
2,2,259,3,79,3,93, man141.jpg, cue_3.jpg,3,0.3665,1
2,2,260,3,80,2,107, man165.jpg, cue_2.jpg,2,0.3049,1
2,2,261,3,81,3,19, man039.jpg, cue_3.jpg,3,0.3098,1
2,2,262,3,82,1,243, man427.jpg, cue_1.jpg,1,0.2983,1
2,2,263,3,83,3,14, man031.jpg, cue_3.jpg,2,0.4952,0
2,2,264,3,84,2,188, man316.jpg, cue_2.jpg,2,0.3318,1
2,2,265,3,85,1,150, man248.jpg, cue_1.jpg,1,0.3355,1
2,2,266,3,86,1,119, man186.jpg, cue_1.jpg,1,0.339,1
2,2,267,3,87,1,11, man025.jpg, cue_1.jpg,1,0.2786,1
2,2,268,3,88,1,221, man382.jpg, cue_1.jpg,1,0.5563,1
2,2,269,3,89,1,114, man174.jpg, cue_1.jpg,1,0.4069,1
2,2,270,3,90,2,205, man354.jpg, cue_2.jpg,2,0.2798,1
2,2,271,4,1,1,195, man336.jpg, cue_1.jpg,1,0.6042,1
2,2,272,4,2,1,11, man025.jpg, cue_1.jpg,1,0.2128,1
2,2,273,4,3,3,14, man031.jpg, cue_3.jpg,3,0.4446,1
2,2,274,4,4,2,132, man206.jpg, cue_2.jpg,2,0.2673,1
2,2,275,4,5,1,61, man099.jpg, cue_1.jpg,1,0.6896,1
2,2,276,4,6,2,92, man139.jpg, cue_2.jpg,2,0.4863,1
2,2,277,4,7,1,10, man024.jpg, cue_1.jpg,1,0.3391,1
2,2,278,4,8,2,205, man354.jpg, cue_2.jpg,2,0.3108,1
2,2,279,4,9,2,159, man260.jpg, cue_2.jpg,2,0.2674,1
2,2,280,4,10,2,140, man230.jpg, cue_2.jpg,2,0.3057,1
2,2,281,4,11,1,250, man436.jpg, cue_1.jpg,1,0.4067,1
2,2,282,4,12,3,134, man208.jpg, cue_3.jpg,3,0.3115,1
2,2,283,4,13,3,45, man076.jpg, cue_3.jpg,3,0.3616,1
2,2,284,4,14,3,55, man091.jpg, cue_3.jpg,3,0.2533,1
2,2,285,4,15,2,145, man242.jpg, cue_2.jpg,2,0.3724,1
2,2,286,4,16,2,204, man352.jpg, cue_2.jpg,2,0.2146,1
2,2,287,4,17,3,41, man070.jpg, cue_3.jpg,3,0.2865,1
2,2,288,4,18,1,21, man041.jpg, cue_1.jpg,1,0.2759,1
2,2,289,4,19,2,78, man122.jpg, cue_2.jpg,2,0.426,1
2,2,290,4,20,3,121, man188.jpg, cue_3.jpg,3,0.2654,1
2,2,291,4,21,2,107, man165.jpg, cue_2.jpg,2,0.351,1
2,2,292,4,22,2,242, man424.jpg, cue_2.jpg,2,0.2252,1
2,2,293,4,23,1,228, man396.jpg, cue_1.jpg,1,0.247,1
2,2,294,4,24,3,93, man141.jpg, cue_3.jpg,3,0.3035,1
2,2,295,4,25,3,200, man345.jpg, cue_3.jpg,3,0.2444,1
2,2,296,4,26,1,119, man186.jpg, cue_1.jpg,1,0.3787,1
2,2,297,4,27,2,6, man016.jpg, cue_2.jpg,2,0.3158,1
2,2,298,4,28,3,50, man084.jpg, cue_3.jpg,3,0.3359,1
2,2,299,4,29,1,166, man276.jpg, cue_1.jpg,1,0.2587,1
2,2,300,4,30,2,130, man203.jpg, cue_2.jpg,2,0.4254,1
2,2,301,4,31,3,83, man128.jpg, cue_3.jpg,3,0.2965,1
2,2,302,4,32,3,102, man158.jpg, cue_3.jpg,3,0.3338,1
2,2,303,4,33,1,96, man149.jpg, cue_1.jpg,1,0.2414,1
2,2,304,4,34,1,2, man004.jpg, cue_1.jpg,1,0.3134,1
2,2,305,4,35,1,157, man258.jpg, cue_1.jpg,1,0.2376,1
2,2,306,4,36,2,69, man110.jpg, cue_2.jpg,2,0.2104,1
2,2,307,4,37,1,65, man104.jpg, cue_1.jpg,1,0.3017,1
2,2,308,4,38,1,256, man447.jpg, cue_1.jpg,1,0.2427,1
2,2,309,4,39,2,190, man326.jpg, cue_2.jpg,2,0.3297,1
2,2,310,4,40,2,3, man005.jpg, cue_2.jpg,2,0.4128,1
2,2,311,4,41,3,164, man273.jpg, cue_3.jpg,3,0.237,1
2,2,312,4,42,1,264, man463.jpg, cue_1.jpg,1,0.2446,1
2,2,313,4,43,2,89, man136.jpg, cue_2.jpg,2,0.5563,1
2,2,314,4,44,2,141, man233.jpg, cue_2.jpg,2,0.5982,1
2,2,315,4,45,1,165, man275.jpg, cue_1.jpg,1,0.6382,1
2,2,316,4,46,2,136, man212.jpg, cue_2.jpg,2,0.3886,1
2,2,317,4,47,2,1, man002.jpg, cue_2.jpg,2,0.2776,1
2,2,318,4,48,3,193, man332.jpg, cue_3.jpg,3,0.3319,1
2,2,319,4,49,1,32, man059.jpg, cue_1.jpg,1,0.3671,1
2,2,320,4,50,3,158, man259.jpg, cue_3.jpg,2,0.6576,0
2,2,321,4,51,2,188, man316.jpg, cue_2.jpg,2,0.3759,1
2,2,322,4,52,3,70, man111.jpg, cue_3.jpg,3,0.3445,1
2,2,323,4,53,2,267, man466.jpg, cue_2.jpg,2,0.4275,1
2,2,324,4,54,3,13, man029.jpg, cue_3.jpg,3,0.2989,1
2,2,325,4,55,1,150, man248.jpg, cue_1.jpg,1,0.3018,1
2,2,326,4,56,3,19, man039.jpg, cue_3.jpg,3,0.373,1
2,2,327,4,57,3,213, man366.jpg, cue_3.jpg,3,0.3434,1
2,2,328,4,58,1,243, man427.jpg, cue_1.jpg,1,0.3621,1
2,2,329,4,59,1,87, man133.jpg, cue_1.jpg,1,0.3157,1
2,2,330,4,60,1,34, man061.jpg, cue_1.jpg,1,0.2721,1
2,2,331,4,61,2,86, man131.jpg, cue_2.jpg,2,0.3103,1
2,2,332,4,62,3,146, man244.jpg, cue_3.jpg,3,0.3141,1
2,2,333,4,63,2,222, man383.jpg, cue_2.jpg,2,0.3664,1
2,2,334,4,64,3,156, man257.jpg, cue_3.jpg,3,0.4325,1
2,2,335,4,65,3,155, man255.jpg, cue_3.jpg,3,0.4002,1
2,2,336,4,66,3,227, man392.jpg, cue_3.jpg,3,0.2407,1
2,2,337,4,67,1,206, man355.jpg, cue_1.jpg,1,0.2807,1
2,2,338,4,68,1,46, man077.jpg, cue_1.jpg,1,0.268,1
2,2,339,4,69,2,25, man047.jpg, cue_2.jpg,2,0.3088,1
2,2,340,4,70,1,76, man120.jpg, cue_1.jpg,1,0.2651,1
2,2,341,4,71,2,265, man464.jpg, cue_2.jpg,2,0.3033,1
2,2,342,4,72,3,142, man234.jpg, cue_3.jpg,3,0.3238,1
2,2,343,4,73,1,114, man174.jpg, cue_1.jpg,1,0.3123,1
2,2,344,4,74,1,218, man377.jpg, cue_1.jpg,1,0.2197,1
2,2,345,4,75,3,7, man017.jpg, cue_3.jpg,3,0.3398,1
2,2,346,4,76,3,54, man089.jpg, cue_3.jpg,3,0.2479,1
2,2,347,4,77,3,217, man375.jpg, cue_3.jpg,3,0.3349,1
2,2,348,4,78,1,4, man007.jpg, cue_1.jpg,1,0.3384,1
2,2,349,4,79,2,240, man422.jpg, cue_2.jpg,2,0.2462,1
2,2,350,4,80,2,12, man027.jpg, cue_2.jpg,2,0.5574,1
2,2,351,4,81,3,82, man126.jpg, cue_3.jpg,3,0.437,1
2,2,352,4,82,2,169, man279.jpg, cue_2.jpg,2,0.6784,1
2,2,353,4,83,3,79, man123.jpg, cue_3.jpg,3,0.3633,1
2,2,354,4,84,3,90, man137.jpg, cue_3.jpg,3,0.2993,1
2,2,355,4,85,1,42, man071.jpg, cue_1.jpg,1,0.2424,1
2,2,356,4,86,2,196, man337.jpg, cue_2.jpg,2,0.2979,1
2,2,357,4,87,1,221, man382.jpg, cue_1.jpg,1,0.2388,1
2,2,358,4,88,1,268, man467.jpg, cue_1.jpg,1,0.3259,1
2,2,359,4,89,3,266, man465.jpg, cue_3.jpg,3,0.3768,1
2,2,360,4,90,2,104, man161.jpg, cue_2.jpg,2,0.2982,1
3,1,1,1,1,1,174, man289.jpg, cue_1.jpg,1,1.376,1
3,1,2,1,2,3,179, man303.jpg, cue_3.jpg,2,0.8876,0
3,1,3,1,3,3,78, man122.jpg, cue_3.jpg,2,0.8849,0
3,1,4,1,4,3,58, man094.jpg, cue_3.jpg,1,1.8511,0
3,1,5,1,5,2,211, man361.jpg, cue_2.jpg,2,0.5908,1
3,1,6,1,6,2,153, man252.jpg, cue_2.jpg,3,1.2052,0
3,1,7,1,7,2,67, man107.jpg, cue_2.jpg,2,0.8382,1
3,1,8,1,8,3,110, man168.jpg, cue_3.jpg,1,1.0128,0
3,1,9,1,9,2,10, man024.jpg, cue_2.jpg,2,0.5712,1
3,1,10,1,10,3,97, man153.jpg, cue_3.jpg,3,1.0603,1
3,1,11,1,11,2,62, man100.jpg, cue_2.jpg,2,0.5525,1
3,1,12,1,12,2,148, man246.jpg, cue_2.jpg,1,0.8196,0
3,1,13,1,13,1,214, man370.jpg, cue_1.jpg,1,0.5465,1
3,1,14,1,14,1,73, man115.jpg, cue_1.jpg,1,0.6206,1
3,1,15,1,15,1,94, man144.jpg, cue_1.jpg,2,0.708,0
3,1,16,1,16,3,137, man221.jpg, cue_3.jpg,3,0.6642,1
3,1,17,1,17,1,53, man088.jpg, cue_1.jpg,1,0.8457,1
3,1,18,1,18,3,140, man230.jpg, cue_3.jpg,2,0.7477,0
3,1,19,1,19,1,95, man145.jpg, cue_1.jpg,1,1.0378,1
3,1,20,1,20,2,98, man154.jpg, cue_2.jpg,2,0.483,1
3,1,21,1,21,3,141, man233.jpg, cue_3.jpg,3,0.7206,1
3,1,22,1,22,3,241, man423.jpg, cue_3.jpg,3,0.8493,1
3,1,23,1,23,1,34, man061.jpg, cue_1.jpg,1,0.7691,1
3,1,24,1,24,2,216, man374.jpg, cue_2.jpg,2,0.61,1
3,1,25,1,25,3,24, man045.jpg, cue_3.jpg,2,1.529,0
3,1,26,1,26,3,51, man085.jpg, cue_3.jpg,1,0.7294,0
3,1,27,1,27,2,89, man136.jpg, cue_2.jpg,2,0.5882,1
3,1,28,1,28,1,17, man035.jpg, cue_1.jpg,1,0.4697,1
3,1,29,1,29,1,1, man002.jpg, cue_1.jpg,1,0.4677,1
3,1,30,1,30,3,120, man187.jpg, cue_3.jpg,3,0.5127,1
3,1,31,1,31,1,16, man034.jpg, cue_1.jpg,1,0.5555,1
3,1,32,1,32,2,212, man365.jpg, cue_2.jpg,2,0.7271,1
3,1,33,1,33,3,180, man304.jpg, cue_3.jpg,2,0.5832,0
3,1,34,1,34,3,61, man099.jpg, cue_3.jpg,3,0.6094,1
3,1,35,1,35,2,183, man311.jpg, cue_2.jpg,1,0.4902,0
3,1,36,1,36,3,198, man339.jpg, cue_3.jpg,3,0.9491,1
3,1,37,1,37,1,128, man198.jpg, cue_1.jpg,1,0.6086,1
3,1,38,1,38,3,190, man326.jpg, cue_3.jpg,2,0.5521,0
3,1,39,1,39,3,7, man017.jpg, cue_3.jpg,3,0.7868,1
3,1,40,1,40,2,88, man135.jpg, cue_2.jpg,2,1.6512,1
3,1,41,1,41,1,93, man141.jpg, cue_1.jpg,1,0.7351,1
3,1,42,1,42,3,268, man467.jpg, cue_3.jpg,3,0.4811,1
3,1,43,1,43,2,132, man206.jpg, cue_2.jpg,2,0.6867,1
3,1,44,1,44,2,195, man336.jpg, cue_2.jpg,2,0.6886,1
3,1,45,1,45,3,185, man313.jpg, cue_3.jpg,1,0.4879,0
3,1,46,1,46,1,232, man407.jpg, cue_1.jpg,1,0.6928,1
3,1,47,1,47,1,76, man120.jpg, cue_1.jpg,3,0.7094,0
3,1,48,1,48,3,109, man167.jpg, cue_3.jpg,2,1.2289,0
3,1,49,1,49,3,270, man471.jpg, cue_3.jpg,2,0.7789,0
3,1,50,1,50,3,255, man446.jpg, cue_3.jpg,3,0.5235,1
3,1,51,1,51,1,246, man430.jpg, cue_1.jpg,1,0.791,1
3,1,52,1,52,3,165, man275.jpg, cue_3.jpg,2,0.6,0
3,1,53,1,53,1,257, man450.jpg, cue_1.jpg,1,0.7356,1
3,1,54,1,54,2,68, man109.jpg, cue_2.jpg,2,1.0258,1
3,1,55,1,55,1,215, man372.jpg, cue_1.jpg,1,0.8868,1
3,1,56,1,56,1,266, man465.jpg, cue_1.jpg,2,0.5971,0
3,1,57,1,57,1,57, man093.jpg, cue_1.jpg,1,1.0211,1
3,1,58,1,58,3,160, man262.jpg, cue_3.jpg,2,0.7559,0
3,1,59,1,59,2,31, man058.jpg, cue_2.jpg,2,0.406,1
3,1,60,1,60,2,115, man177.jpg, cue_2.jpg,2,0.454,1
3,1,61,1,61,1,210, man360.jpg, cue_1.jpg,1,0.4048,1
3,1,62,1,62,1,162, man268.jpg, cue_1.jpg,1,0.8537,1
3,1,63,1,63,1,49, man082.jpg, cue_1.jpg,1,0.4995,1
3,1,64,1,64,2,238, man417.jpg, cue_2.jpg,2,0.5116,1
3,1,65,1,65,3,83, man128.jpg, cue_3.jpg,2,0.4106,0
3,1,66,1,66,2,244, man428.jpg, cue_2.jpg,3,1.0666,0
3,1,67,1,67,1,21, man041.jpg, cue_1.jpg,1,0.4466,1
3,1,68,1,68,1,170, man281.jpg, cue_1.jpg,1,0.6854,1
3,1,69,1,69,2,129, man202.jpg, cue_2.jpg,2,0.4664,1
3,1,70,1,70,2,159, man260.jpg, cue_2.jpg,2,0.7844,1
3,1,71,1,71,2,192, man330.jpg, cue_2.jpg,2,1.2486,1
3,1,72,1,72,2,245, man429.jpg, cue_2.jpg,1,0.6206,0
3,1,73,1,73,1,150, man248.jpg, cue_1.jpg,1,0.5332,1
3,1,74,1,74,3,75, man118.jpg, cue_3.jpg,1,1.2327,0
3,1,75,1,75,1,163, man271.jpg, cue_1.jpg,1,0.4623,1
3,1,76,1,76,1,157, man258.jpg, cue_1.jpg,1,0.7803,1
3,1,77,1,77,2,136, man212.jpg, cue_2.jpg,3,1.7409,0
3,1,78,1,78,3,182, man310.jpg, cue_3.jpg,2,0.8537,0
3,1,79,1,79,1,13, man029.jpg, cue_1.jpg,1,0.8196,1
3,1,80,1,80,3,265, man464.jpg, cue_3.jpg,3,0.7232,1
3,1,81,1,81,2,37, man064.jpg, cue_2.jpg,2,0.5664,1
3,1,82,1,82,3,2, man004.jpg, cue_3.jpg,2,1.7598,0
3,1,83,1,83,2,19, man039.jpg, cue_2.jpg,2,0.4874,1
3,1,84,1,84,1,184, man312.jpg, cue_1.jpg,1,0.4065,1
3,1,85,1,85,2,3, man005.jpg, cue_2.jpg,2,0.4355,1
3,1,86,1,86,2,72, man114.jpg, cue_2.jpg,2,0.7719,1
3,1,87,1,87,3,4, man007.jpg, cue_3.jpg,3,0.4846,1
3,1,88,1,88,1,213, man366.jpg, cue_1.jpg,1,1.0075,1
3,1,89,1,89,2,175, man291.jpg, cue_2.jpg,2,0.7768,1
3,1,90,1,90,2,52, man086.jpg, cue_2.jpg,2,1.3537,1
3,1,91,2,1,3,270, man471.jpg, cue_3.jpg,3,1.032,1
3,1,92,2,2,2,52, man086.jpg, cue_2.jpg,2,0.4941,1
3,1,93,2,3,1,214, man370.jpg, cue_1.jpg,1,0.4908,1
3,1,94,2,4,2,192, man330.jpg, cue_2.jpg,2,0.5364,1
3,1,95,2,5,1,17, man035.jpg, cue_1.jpg,1,0.9459,1
3,1,96,2,6,3,141, man233.jpg, cue_3.jpg,3,0.4929,1
3,1,97,2,7,1,174, man289.jpg, cue_1.jpg,1,0.4893,1
3,1,98,2,8,1,21, man041.jpg, cue_1.jpg,1,0.4705,1
3,1,99,2,9,2,153, man252.jpg, cue_2.jpg,2,0.4373,1
3,1,100,2,10,3,190, man326.jpg, cue_3.jpg,3,0.4515,1
3,1,101,2,11,2,136, man212.jpg, cue_2.jpg,2,0.9146,1
3,1,102,2,12,3,179, man303.jpg, cue_3.jpg,3,0.5894,1
3,1,103,2,13,2,89, man136.jpg, cue_2.jpg,2,0.5029,1
3,1,104,2,14,2,98, man154.jpg, cue_2.jpg,2,0.4673,1
3,1,105,2,15,1,257, man450.jpg, cue_1.jpg,1,0.3691,1
3,1,106,2,16,2,175, man291.jpg, cue_2.jpg,2,0.4675,1
3,1,107,2,17,1,184, man312.jpg, cue_1.jpg,1,0.4334,1
3,1,108,2,18,2,31, man058.jpg, cue_2.jpg,2,0.4327,1
3,1,109,2,19,3,61, man099.jpg, cue_3.jpg,3,0.5923,1
3,1,110,2,20,2,159, man260.jpg, cue_2.jpg,2,0.4567,1
3,1,111,2,21,3,265, man464.jpg, cue_3.jpg,3,0.7592,1
3,1,112,2,22,1,73, man115.jpg, cue_1.jpg,1,0.4094,1
3,1,113,2,23,2,3, man005.jpg, cue_2.jpg,2,0.4899,1
3,1,114,2,24,1,57, man093.jpg, cue_1.jpg,1,0.5184,1
3,1,115,2,25,3,185, man313.jpg, cue_3.jpg,3,1.5054,1
3,1,116,2,26,2,195, man336.jpg, cue_2.jpg,2,0.5641,1
3,1,117,2,27,2,216, man374.jpg, cue_2.jpg,2,0.462,1
3,1,118,2,28,3,160, man262.jpg, cue_3.jpg,3,1.0999,1
3,1,119,2,29,2,212, man365.jpg, cue_2.jpg,2,0.3826,1
3,1,120,2,30,1,94, man144.jpg, cue_1.jpg,1,0.5752,1
3,1,121,2,31,2,115, man177.jpg, cue_2.jpg,2,0.3429,1
3,1,122,2,32,2,72, man114.jpg, cue_2.jpg,2,0.4116,1
3,1,123,2,33,1,157, man258.jpg, cue_1.jpg,1,0.588,1
3,1,124,2,34,3,241, man423.jpg, cue_3.jpg,3,0.5135,1
3,1,125,2,35,2,88, man135.jpg, cue_2.jpg,2,0.432,1
3,1,126,2,36,2,148, man246.jpg, cue_2.jpg,2,1.2951,1
3,1,127,2,37,1,213, man366.jpg, cue_1.jpg,1,0.5212,1
3,1,128,2,38,1,246, man430.jpg, cue_1.jpg,1,0.4383,1
3,1,129,2,39,2,10, man024.jpg, cue_2.jpg,2,0.4699,1
3,1,130,2,40,1,93, man141.jpg, cue_1.jpg,1,0.4828,1
3,1,131,2,41,1,13, man029.jpg, cue_1.jpg,1,0.9765,1
3,1,132,2,42,2,37, man064.jpg, cue_2.jpg,2,0.6809,1
3,1,133,2,43,1,162, man268.jpg, cue_1.jpg,1,0.4296,1
3,1,134,2,44,3,140, man230.jpg, cue_3.jpg,3,0.6208,1
3,1,135,2,45,3,198, man339.jpg, cue_3.jpg,3,0.5478,1
3,1,136,2,46,3,109, man167.jpg, cue_3.jpg,3,1.3101,1
3,1,137,2,47,2,238, man417.jpg, cue_2.jpg,2,0.6648,1
3,1,138,2,48,1,95, man145.jpg, cue_1.jpg,1,0.4276,1
3,1,139,2,49,1,53, man088.jpg, cue_1.jpg,1,0.5092,1
3,1,140,2,50,2,132, man206.jpg, cue_2.jpg,2,0.489,1
3,1,141,2,51,1,76, man120.jpg, cue_1.jpg,1,0.5175,1
3,1,142,2,52,2,211, man361.jpg, cue_2.jpg,2,1.5369,1
3,1,143,2,53,3,120, man187.jpg, cue_3.jpg,3,0.402,1
3,1,144,2,54,3,255, man446.jpg, cue_3.jpg,3,0.4185,1
3,1,145,2,55,2,67, man107.jpg, cue_2.jpg,2,0.5945,1
3,1,146,2,56,3,180, man304.jpg, cue_3.jpg,3,0.4912,1
3,1,147,2,57,3,165, man275.jpg, cue_3.jpg,3,0.7282,1
3,1,148,2,58,1,1, man002.jpg, cue_1.jpg,1,0.4269,1
3,1,149,2,59,3,83, man128.jpg, cue_3.jpg,3,0.4418,1
3,1,150,2,60,1,128, man198.jpg, cue_1.jpg,1,0.8241,1
3,1,151,2,61,2,244, man428.jpg, cue_2.jpg,2,0.6005,1
3,1,152,2,62,3,24, man045.jpg, cue_3.jpg,3,0.4649,1
3,1,153,2,63,1,150, man248.jpg, cue_1.jpg,1,0.6547,1
3,1,154,2,64,1,232, man407.jpg, cue_1.jpg,1,0.4371,1
3,1,155,2,65,3,97, man153.jpg, cue_3.jpg,3,0.7887,1
3,1,156,2,66,3,58, man094.jpg, cue_3.jpg,3,0.4848,1
3,1,157,2,67,1,266, man465.jpg, cue_1.jpg,1,0.9458,1
3,1,158,2,68,3,7, man017.jpg, cue_3.jpg,3,0.5071,1
3,1,159,2,69,3,4, man007.jpg, cue_3.jpg,3,0.4718,1
3,1,160,2,70,3,51, man085.jpg, cue_3.jpg,3,1.1736,1
3,1,161,2,71,1,34, man061.jpg, cue_1.jpg,1,0.4032,1
3,1,162,2,72,1,16, man034.jpg, cue_1.jpg,1,0.71,1
3,1,163,2,73,3,2, man004.jpg, cue_3.jpg,3,0.7457,1
3,1,164,2,74,1,49, man082.jpg, cue_1.jpg,1,0.4596,1
3,1,165,2,75,2,19, man039.jpg, cue_2.jpg,2,0.4898,1
3,1,166,2,76,3,182, man310.jpg, cue_3.jpg,3,0.4711,1
3,1,167,2,77,3,110, man168.jpg, cue_3.jpg,3,0.4989,1
3,1,168,2,78,3,137, man221.jpg, cue_3.jpg,3,0.513,1
3,1,169,2,79,2,68, man109.jpg, cue_2.jpg,2,1.005,1
3,1,170,2,80,1,163, man271.jpg, cue_1.jpg,1,0.356,1
3,1,171,2,81,3,268, man467.jpg, cue_3.jpg,3,0.5028,1
3,1,172,2,82,2,129, man202.jpg, cue_2.jpg,2,0.6594,1
3,1,173,2,83,3,78, man122.jpg, cue_3.jpg,3,0.5522,1
3,1,174,2,84,1,210, man360.jpg, cue_1.jpg,1,0.4676,1
3,1,175,2,85,1,215, man372.jpg, cue_1.jpg,1,0.8496,1
3,1,176,2,86,1,170, man281.jpg, cue_1.jpg,1,0.4638,1
3,1,177,2,87,2,183, man311.jpg, cue_2.jpg,2,0.4934,1
3,1,178,2,88,2,245, man429.jpg, cue_2.jpg,2,0.7461,1
3,1,179,2,89,3,75, man118.jpg, cue_3.jpg,3,0.428,1
3,1,180,2,90,2,62, man100.jpg, cue_2.jpg,2,1.5476,1
3,1,181,3,1,2,67, man107.jpg, cue_2.jpg,2,0.6904,1
3,1,182,3,2,1,76, man120.jpg, cue_1.jpg,1,0.5032,1
3,1,183,3,3,3,255, man446.jpg, cue_3.jpg,3,0.4676,1
3,1,184,3,4,2,245, man429.jpg, cue_2.jpg,2,0.4815,1
3,1,185,3,5,1,128, man198.jpg, cue_1.jpg,1,0.4775,1
3,1,186,3,6,2,153, man252.jpg, cue_2.jpg,2,0.4586,1
3,1,187,3,7,3,241, man423.jpg, cue_3.jpg,3,0.5052,1
3,1,188,3,8,1,16, man034.jpg, cue_1.jpg,1,0.5022,1
3,1,189,3,9,2,88, man135.jpg, cue_2.jpg,2,0.4667,1
3,1,190,3,10,3,268, man467.jpg, cue_3.jpg,3,0.5441,1
3,1,191,3,11,1,73, man115.jpg, cue_1.jpg,1,1.0347,1
3,1,192,3,12,1,215, man372.jpg, cue_1.jpg,1,0.4968,1
3,1,193,3,13,3,120, man187.jpg, cue_3.jpg,3,0.5252,1
3,1,194,3,14,2,216, man374.jpg, cue_2.jpg,2,0.3773,1
3,1,195,3,15,3,51, man085.jpg, cue_3.jpg,3,1.3226,1
3,1,196,3,16,1,157, man258.jpg, cue_1.jpg,1,0.4843,1
3,1,197,3,17,2,10, man024.jpg, cue_2.jpg,2,0.449,1
3,1,198,3,18,2,31, man058.jpg, cue_2.jpg,2,0.3677,1
3,1,199,3,19,1,246, man430.jpg, cue_1.jpg,1,0.3856,1
3,1,200,3,20,1,266, man465.jpg, cue_1.jpg,1,1.1071,1
3,1,201,3,21,3,58, man094.jpg, cue_3.jpg,3,0.4063,1
3,1,202,3,22,3,180, man304.jpg, cue_3.jpg,3,0.6142,1
3,1,203,3,23,1,210, man360.jpg, cue_1.jpg,1,0.8459,1
3,1,204,3,24,1,94, man144.jpg, cue_1.jpg,1,0.3931,1
3,1,205,3,25,1,174, man289.jpg, cue_1.jpg,1,0.5401,1
3,1,206,3,26,3,110, man168.jpg, cue_3.jpg,3,0.4711,1
3,1,207,3,27,1,49, man082.jpg, cue_1.jpg,1,0.4026,1
3,1,208,3,28,2,195, man336.jpg, cue_2.jpg,2,0.5341,1
3,1,209,3,29,1,95, man145.jpg, cue_1.jpg,1,0.3374,1
3,1,210,3,30,2,129, man202.jpg, cue_2.jpg,2,0.3731,1
3,1,211,3,31,2,3, man005.jpg, cue_2.jpg,2,0.3905,1
3,1,212,3,32,3,109, man167.jpg, cue_3.jpg,3,0.7921,1
3,1,213,3,33,2,132, man206.jpg, cue_2.jpg,2,0.3445,1
3,1,214,3,34,1,57, man093.jpg, cue_1.jpg,1,0.3791,1
3,1,215,3,35,3,61, man099.jpg, cue_3.jpg,3,0.3963,1
3,1,216,3,36,1,21, man041.jpg, cue_1.jpg,1,0.4292,1
3,1,217,3,37,3,190, man326.jpg, cue_3.jpg,3,0.4441,1
3,1,218,3,38,1,13, man029.jpg, cue_1.jpg,1,0.3304,1
3,1,219,3,39,3,7, man017.jpg, cue_3.jpg,3,0.4453,1
3,1,220,3,40,1,170, man281.jpg, cue_1.jpg,1,0.9725,1
3,1,221,3,41,3,97, man153.jpg, cue_3.jpg,3,0.5973,1
3,1,222,3,42,2,19, man039.jpg, cue_2.jpg,2,0.3979,1
3,1,223,3,43,1,93, man141.jpg, cue_1.jpg,1,0.2857,1
3,1,224,3,44,2,159, man260.jpg, cue_2.jpg,2,0.3715,1
3,1,225,3,45,1,150, man248.jpg, cue_1.jpg,1,0.4379,1
3,1,226,3,46,3,141, man233.jpg, cue_3.jpg,3,0.3731,1
3,1,227,3,47,2,68, man109.jpg, cue_2.jpg,2,0.2793,1
3,1,228,3,48,1,232, man407.jpg, cue_1.jpg,1,0.301,1
3,1,229,3,49,1,163, man271.jpg, cue_1.jpg,1,0.3049,1
3,1,230,3,50,3,83, man128.jpg, cue_3.jpg,3,0.3751,1
3,1,231,3,51,2,212, man365.jpg, cue_2.jpg,2,0.3134,1
3,1,232,3,52,3,270, man471.jpg, cue_3.jpg,3,0.428,1
3,1,233,3,53,2,115, man177.jpg, cue_2.jpg,2,0.3484,1
3,1,234,3,54,3,179, man303.jpg, cue_3.jpg,3,0.4952,1
3,1,235,3,55,1,53, man088.jpg, cue_1.jpg,1,0.2804,1
3,1,236,3,56,2,211, man361.jpg, cue_2.jpg,2,0.3526,1
3,1,237,3,57,2,175, man291.jpg, cue_2.jpg,2,0.2754,1
3,1,238,3,58,3,140, man230.jpg, cue_3.jpg,3,0.3757,1
3,1,239,3,59,3,160, man262.jpg, cue_3.jpg,3,0.5859,1
3,1,240,3,60,1,17, man035.jpg, cue_1.jpg,1,0.3067,1
3,1,241,3,61,2,136, man212.jpg, cue_2.jpg,2,0.984,1
3,1,242,3,62,3,75, man118.jpg, cue_3.jpg,3,0.4154,1
3,1,243,3,63,2,244, man428.jpg, cue_2.jpg,2,0.336,1
3,1,244,3,64,2,238, man417.jpg, cue_2.jpg,2,0.2752,1
3,1,245,3,65,2,183, man311.jpg, cue_2.jpg,2,0.3926,1
3,1,246,3,66,2,72, man114.jpg, cue_2.jpg,2,0.345,1
3,1,247,3,67,1,1, man002.jpg, cue_1.jpg,1,0.2681,1
3,1,248,3,68,1,257, man450.jpg, cue_1.jpg,1,0.4339,1
3,1,249,3,69,3,137, man221.jpg, cue_3.jpg,3,0.3701,1
3,1,250,3,70,2,62, man100.jpg, cue_2.jpg,2,0.8351,1
3,1,251,3,71,3,78, man122.jpg, cue_3.jpg,3,0.4493,1
3,1,252,3,72,2,37, man064.jpg, cue_2.jpg,2,0.4964,1
3,1,253,3,73,2,89, man136.jpg, cue_2.jpg,2,0.4452,1
3,1,254,3,74,1,34, man061.jpg, cue_1.jpg,1,0.8118,1
3,1,255,3,75,2,52, man086.jpg, cue_2.jpg,2,0.2992,1
3,1,256,3,76,3,2, man004.jpg, cue_3.jpg,3,0.4157,1
3,1,257,3,77,3,198, man339.jpg, cue_3.jpg,3,0.3997,1
3,1,258,3,78,2,98, man154.jpg, cue_2.jpg,2,0.2726,1
3,1,259,3,79,2,192, man330.jpg, cue_2.jpg,2,0.3581,1
3,1,260,3,80,3,24, man045.jpg, cue_3.jpg,3,0.3895,1
3,1,261,3,81,3,265, man464.jpg, cue_3.jpg,3,0.4571,1
3,1,262,3,82,3,185, man313.jpg, cue_3.jpg,3,0.6,1
3,1,263,3,83,3,182, man310.jpg, cue_3.jpg,3,0.3339,1
3,1,264,3,84,3,4, man007.jpg, cue_3.jpg,3,0.3878,1
3,1,265,3,85,1,184, man312.jpg, cue_1.jpg,1,0.3407,1
3,1,266,3,86,1,213, man366.jpg, cue_1.jpg,1,0.3768,1
3,1,267,3,87,3,165, man275.jpg, cue_3.jpg,3,0.522,1
3,1,268,3,88,1,214, man370.jpg, cue_1.jpg,1,0.741,1
3,1,269,3,89,2,148, man246.jpg, cue_2.jpg,2,0.6613,1
3,1,270,3,90,1,162, man268.jpg, cue_1.jpg,1,0.3808,1
3,1,271,4,1,3,190, man326.jpg, cue_3.jpg,3,0.4866,1
3,1,272,4,2,2,192, man330.jpg, cue_2.jpg,2,0.3701,1
3,1,273,4,3,1,266, man465.jpg, cue_1.jpg,1,0.8222,1
3,1,274,4,4,1,53, man088.jpg, cue_1.jpg,1,0.3413,1
3,1,275,4,5,1,174, man289.jpg, cue_1.jpg,1,0.2473,1
3,1,276,4,6,3,58, man094.jpg, cue_3.jpg,3,0.3363,1
3,1,277,4,7,2,159, man260.jpg, cue_2.jpg,2,0.2911,1
3,1,278,4,8,1,57, man093.jpg, cue_1.jpg,1,0.3125,1
3,1,279,4,9,3,160, man262.jpg, cue_3.jpg,3,0.3165,1
3,1,280,4,10,1,128, man198.jpg, cue_1.jpg,1,0.2886,1
3,1,281,4,11,1,13, man029.jpg, cue_1.jpg,1,0.2611,1
3,1,282,4,12,3,182, man310.jpg, cue_3.jpg,3,0.2675,1
3,1,283,4,13,2,129, man202.jpg, cue_2.jpg,2,0.3854,1
3,1,284,4,14,1,213, man366.jpg, cue_1.jpg,1,0.2746,1
3,1,285,4,15,1,34, man061.jpg, cue_1.jpg,1,0.2813,1
3,1,286,4,16,2,52, man086.jpg, cue_2.jpg,2,0.2866,1
3,1,287,4,17,2,31, man058.jpg, cue_2.jpg,2,0.3079,1
3,1,288,4,18,1,94, man144.jpg, cue_1.jpg,1,0.2783,1
3,1,289,4,19,2,10, man024.jpg, cue_2.jpg,2,0.286,1
3,1,290,4,20,2,88, man135.jpg, cue_2.jpg,2,0.2911,1
3,1,291,4,21,2,183, man311.jpg, cue_2.jpg,2,0.296,1
3,1,292,4,22,3,198, man339.jpg, cue_3.jpg,3,0.3803,1
3,1,293,4,23,3,61, man099.jpg, cue_3.jpg,3,0.4937,1
3,1,294,4,24,2,244, man428.jpg, cue_2.jpg,2,0.3782,1
3,1,295,4,25,3,120, man187.jpg, cue_3.jpg,3,0.7154,1
3,1,296,4,26,1,49, man082.jpg, cue_1.jpg,1,0.2386,1
3,1,297,4,27,3,241, man423.jpg, cue_3.jpg,3,0.3427,1
3,1,298,4,28,1,162, man268.jpg, cue_1.jpg,1,0.2976,1
3,1,299,4,29,3,180, man304.jpg, cue_3.jpg,3,0.3819,1
3,1,300,4,30,2,67, man107.jpg, cue_2.jpg,2,0.3033,1
3,1,301,4,31,1,157, man258.jpg, cue_1.jpg,1,0.2747,1
3,1,302,4,32,2,115, man177.jpg, cue_2.jpg,2,0.298,1
3,1,303,4,33,3,265, man464.jpg, cue_3.jpg,3,0.3031,1
3,1,304,4,34,2,175, man291.jpg, cue_2.jpg,2,0.2909,1
3,1,305,4,35,1,73, man115.jpg, cue_1.jpg,1,0.4883,1
3,1,306,4,36,1,76, man120.jpg, cue_1.jpg,1,0.2776,1
3,1,307,4,37,1,1, man002.jpg, cue_1.jpg,1,0.2034,1
3,1,308,4,38,3,268, man467.jpg, cue_3.jpg,3,0.2598,1
3,1,309,4,39,1,246, man430.jpg, cue_1.jpg,1,0.2816,1
3,1,310,4,40,2,238, man417.jpg, cue_2.jpg,2,0.2713,1
3,1,311,4,41,2,245, man429.jpg, cue_2.jpg,2,0.2775,1
3,1,312,4,42,2,136, man212.jpg, cue_2.jpg,2,0.3471,1
3,1,313,4,43,3,140, man230.jpg, cue_3.jpg,3,0.3336,1
3,1,314,4,44,3,97, man153.jpg, cue_3.jpg,3,0.3668,1
3,1,315,4,45,3,185, man313.jpg, cue_3.jpg,3,0.291,1
3,1,316,4,46,1,17, man035.jpg, cue_1.jpg,1,0.2805,1
3,1,317,4,47,3,4, man007.jpg, cue_3.jpg,3,0.2064,1
3,1,318,4,48,1,16, man034.jpg, cue_1.jpg,1,0.3909,1
3,1,319,4,49,2,153, man252.jpg, cue_2.jpg,2,0.2801,1
3,1,320,4,50,1,215, man372.jpg, cue_1.jpg,1,0.2701,1
3,1,321,4,51,2,37, man064.jpg, cue_2.jpg,2,0.2916,1
3,1,322,4,52,1,232, man407.jpg, cue_1.jpg,1,0.297,1
3,1,323,4,53,1,257, man450.jpg, cue_1.jpg,1,0.2377,1
3,1,324,4,54,2,132, man206.jpg, cue_2.jpg,2,0.3386,1
3,1,325,4,55,2,195, man336.jpg, cue_2.jpg,2,0.2813,1
3,1,326,4,56,3,255, man446.jpg, cue_3.jpg,3,0.303,1
3,1,327,4,57,2,212, man365.jpg, cue_2.jpg,2,0.2758,1
3,1,328,4,58,3,75, man118.jpg, cue_3.jpg,3,0.3936,1
3,1,329,4,59,3,141, man233.jpg, cue_3.jpg,3,0.3624,1
3,1,330,4,60,2,216, man374.jpg, cue_2.jpg,2,0.2688,1
3,1,331,4,61,1,170, man281.jpg, cue_1.jpg,1,0.2432,1
3,1,332,4,62,3,78, man122.jpg, cue_3.jpg,3,0.2981,1
3,1,333,4,63,3,51, man085.jpg, cue_3.jpg,3,0.9752,1
3,1,334,4,64,1,163, man271.jpg, cue_1.jpg,1,0.3122,1
3,1,335,4,65,2,89, man136.jpg, cue_2.jpg,2,0.7806,1
3,1,336,4,66,3,137, man221.jpg, cue_3.jpg,3,0.2693,1
3,1,337,4,67,2,72, man114.jpg, cue_2.jpg,2,0.339,1
3,1,338,4,68,3,109, man167.jpg, cue_3.jpg,3,0.3433,1
3,1,339,4,69,3,179, man303.jpg, cue_3.jpg,3,0.3625,1
3,1,340,4,70,1,93, man141.jpg, cue_1.jpg,1,0.2992,1
3,1,341,4,71,1,214, man370.jpg, cue_1.jpg,1,0.2889,1
3,1,342,4,72,2,3, man005.jpg, cue_2.jpg,2,0.2466,1
3,1,343,4,73,3,270, man471.jpg, cue_3.jpg,3,0.3013,1
3,1,344,4,74,1,150, man248.jpg, cue_1.jpg,1,0.4179,1
3,1,345,4,75,1,95, man145.jpg, cue_1.jpg,1,0.3379,1
3,1,346,4,76,2,148, man246.jpg, cue_2.jpg,2,0.421,1
3,1,347,4,77,3,24, man045.jpg, cue_3.jpg,3,0.3884,1
3,1,348,4,78,3,110, man168.jpg, cue_3.jpg,3,0.261,1
3,1,349,4,79,2,62, man100.jpg, cue_2.jpg,2,0.2995,1
3,1,350,4,80,2,19, man039.jpg, cue_2.jpg,2,0.4327,1
3,1,351,4,81,3,2, man004.jpg, cue_3.jpg,3,0.3999,1
3,1,352,4,82,3,83, man128.jpg, cue_3.jpg,3,0.3047,1
3,1,353,4,83,1,210, man360.jpg, cue_1.jpg,1,0.3418,1
3,1,354,4,84,1,184, man312.jpg, cue_1.jpg,1,0.2174,1
3,1,355,4,85,2,211, man361.jpg, cue_2.jpg,2,0.3377,1
3,1,356,4,86,2,98, man154.jpg, cue_2.jpg,2,0.3862,1
3,1,357,4,87,3,7, man017.jpg, cue_3.jpg,3,0.2936,1
3,1,358,4,88,2,68, man109.jpg, cue_2.jpg,2,0.3624,1
3,1,359,4,89,1,21, man041.jpg, cue_1.jpg,1,0.3007,1
3,1,360,4,90,3,165, man275.jpg, cue_3.jpg,3,0.7055,1
4,2,1,1,1,1,227, man392.jpg, cue_1.jpg,2,1.5642,0
4,2,2,1,2,1,100, man156.jpg, cue_1.jpg,2,0.7806,0
4,2,3,1,3,3,47, man078.jpg, cue_3.jpg,3,1.1484,1
4,2,4,1,4,2,120, man187.jpg, cue_2.jpg,1,0.9249,0
4,2,5,1,5,3,15, man032.jpg, cue_3.jpg,2,1.0951,0
4,2,6,1,6,2,58, man094.jpg, cue_2.jpg,2,0.954,1
4,2,7,1,7,1,13, man029.jpg, cue_1.jpg,1,0.5641,1
4,2,8,1,8,3,248, man433.jpg, cue_3.jpg,1,1.2273,0
4,2,9,1,9,2,45, man076.jpg, cue_2.jpg,2,0.6517,1
4,2,10,1,10,2,264, man463.jpg, cue_2.jpg,2,0.5134,1
4,2,11,1,11,2,233, man410.jpg, cue_2.jpg,2,0.4611,1
4,2,12,1,12,1,217, man375.jpg, cue_1.jpg,1,0.4272,1
4,2,13,1,13,3,173, man287.jpg, cue_3.jpg,2,0.9387,0
4,2,14,1,14,3,164, man273.jpg, cue_3.jpg,3,1.0771,1
4,2,15,1,15,2,56, man092.jpg, cue_2.jpg,1,0.4894,0
4,2,16,1,16,3,31, man058.jpg, cue_3.jpg,3,0.5984,1
4,2,17,1,17,2,152, man250.jpg, cue_2.jpg,2,0.6706,1
4,2,18,1,18,2,244, man428.jpg, cue_2.jpg,2,0.5317,1
4,2,19,1,19,3,71, man112.jpg, cue_3.jpg,1,1.3909,0
4,2,20,1,20,3,230, man403.jpg, cue_3.jpg,3,0.5665,1
4,2,21,1,21,3,75, man118.jpg, cue_3.jpg,3,0.6245,1
4,2,22,1,22,2,177, man299.jpg, cue_2.jpg,1,0.8563,0
4,2,23,1,23,3,207, man357.jpg, cue_3.jpg,1,0.7581,0
4,2,24,1,24,1,159, man260.jpg, cue_1.jpg,1,0.6157,1
4,2,25,1,25,3,57, man093.jpg, cue_3.jpg,2,1.2783,0
4,2,26,1,26,3,81, man125.jpg, cue_3.jpg,3,0.906,1
4,2,27,1,27,1,73, man115.jpg, cue_1.jpg,2,1.6831,0
4,2,28,1,28,1,149, man247.jpg, cue_1.jpg,2,1.4249,0
4,2,29,1,29,1,89, man136.jpg, cue_1.jpg,2,0.7564,0
4,2,30,1,30,1,235, man413.jpg, cue_1.jpg,1,0.5691,1
4,2,31,1,31,2,158, man259.jpg, cue_2.jpg,2,0.6591,1
4,2,32,1,32,1,210, man360.jpg, cue_1.jpg,1,1.2734,1
4,2,33,1,33,2,129, man202.jpg, cue_2.jpg,3,1.0136,0
4,2,34,1,34,2,69, man110.jpg, cue_2.jpg,1,1.3887,0
4,2,35,1,35,1,215, man372.jpg, cue_1.jpg,1,1.2359,1
4,2,36,1,36,1,200, man345.jpg, cue_1.jpg,1,0.5304,1
4,2,37,1,37,2,151, man249.jpg, cue_2.jpg,2,0.5725,1
4,2,38,1,38,3,64, man102.jpg, cue_3.jpg,2,0.7264,0
4,2,39,1,39,2,219, man378.jpg, cue_2.jpg,2,1.1442,1
4,2,40,1,40,1,237, man416.jpg, cue_1.jpg,1,1.3537,1
4,2,41,1,41,1,168, man278.jpg, cue_1.jpg,2,1.0748,0
4,2,42,1,42,1,194, man333.jpg, cue_1.jpg,1,0.5985,1
4,2,43,1,43,3,53, man088.jpg, cue_3.jpg,3,1.0081,1
4,2,44,1,44,2,199, man341.jpg, cue_2.jpg,2,0.9198,1
4,2,45,1,45,3,35, man062.jpg, cue_3.jpg,3,0.9945,1
4,2,46,1,46,3,66, man106.jpg, cue_3.jpg,3,0.4897,1
4,2,47,1,47,2,102, man158.jpg, cue_2.jpg,1,0.5639,0
4,2,48,1,48,1,93, man141.jpg, cue_1.jpg,1,0.9597,1
4,2,49,1,49,2,234, man412.jpg, cue_2.jpg,2,0.5212,1
4,2,50,1,50,3,76, man120.jpg, cue_3.jpg,1,1.587,0
4,2,51,1,51,3,170, man281.jpg, cue_3.jpg,3,0.4681,1
4,2,52,1,52,3,162, man268.jpg, cue_3.jpg,3,0.466,1
4,2,53,1,53,3,83, man128.jpg, cue_3.jpg,1,0.816,0
4,2,54,1,54,3,231, man404.jpg, cue_3.jpg,1,0.6555,0
4,2,55,1,55,1,202, man350.jpg, cue_1.jpg,1,1.2378,1
4,2,56,1,56,3,246, man430.jpg, cue_3.jpg,2,1.204,0
4,2,57,1,57,3,153, man252.jpg, cue_3.jpg,2,0.883,0
4,2,58,1,58,1,266, man465.jpg, cue_1.jpg,1,0.4952,1
4,2,59,1,59,1,263, man462.jpg, cue_1.jpg,1,0.4751,1
4,2,60,1,60,1,247, man431.jpg, cue_1.jpg,1,0.441,1
4,2,61,1,61,2,111, man169.jpg, cue_2.jpg,2,0.6643,1
4,2,62,1,62,1,60, man096.jpg, cue_1.jpg,3,0.7017,0
4,2,63,1,63,1,255, man446.jpg, cue_1.jpg,2,0.6896,0
4,2,64,1,64,1,118, man184.jpg, cue_1.jpg,3,1.382,0
4,2,65,1,65,3,5, man010.jpg, cue_3.jpg,2,0.5576,0
4,2,66,1,66,2,260, man459.jpg, cue_2.jpg,2,0.6127,1
4,2,67,1,67,2,85, man130.jpg, cue_2.jpg,2,0.463,1
4,2,68,1,68,2,103, man160.jpg, cue_2.jpg,3,0.525,0
4,2,69,1,69,1,242, man424.jpg, cue_1.jpg,1,0.7932,1
4,2,70,1,70,2,190, man326.jpg, cue_2.jpg,2,0.7619,1
4,2,71,1,71,2,20, man040.jpg, cue_2.jpg,3,0.7791,0
4,2,72,1,72,3,106, man163.jpg, cue_3.jpg,3,1.1001,1
4,2,73,1,73,2,49, man082.jpg, cue_2.jpg,2,0.6556,1
4,2,74,1,74,3,240, man422.jpg, cue_3.jpg,2,0.6612,0
4,2,75,1,75,1,116, man179.jpg, cue_1.jpg,1,0.9711,1
4,2,76,1,76,3,62, man100.jpg, cue_3.jpg,1,0.7881,0
4,2,77,1,77,1,86, man131.jpg, cue_1.jpg,2,0.6582,0
4,2,78,1,78,1,222, man383.jpg, cue_1.jpg,3,0.7145,0
4,2,79,1,79,2,79, man123.jpg, cue_2.jpg,2,0.7822,1
4,2,80,1,80,3,204, man352.jpg, cue_3.jpg,2,0.5565,0
4,2,81,1,81,3,80, man124.jpg, cue_3.jpg,3,0.5204,1
4,2,82,1,82,2,141, man233.jpg, cue_2.jpg,2,0.5965,1
4,2,83,1,83,2,110, man168.jpg, cue_2.jpg,3,1.005,0
4,2,84,1,84,2,29, man055.jpg, cue_2.jpg,2,0.8038,1
4,2,85,1,85,2,16, man034.jpg, cue_2.jpg,2,1.0759,1
4,2,86,1,86,2,185, man313.jpg, cue_2.jpg,2,0.4725,1
4,2,87,1,87,1,193, man332.jpg, cue_1.jpg,1,0.7586,1
4,2,88,1,88,3,188, man316.jpg, cue_3.jpg,1,1.1125,0
4,2,89,1,89,1,157, man258.jpg, cue_1.jpg,3,1.2592,0
4,2,90,1,90,1,236, man414.jpg, cue_1.jpg,3,1.4325,0
4,2,91,2,1,1,200, man345.jpg, cue_1.jpg,1,0.8614,1
4,2,92,2,2,2,234, man412.jpg, cue_2.jpg,2,0.6344,1
4,2,93,2,3,3,170, man281.jpg, cue_3.jpg,3,1.4253,1
4,2,94,2,4,1,60, man096.jpg, cue_1.jpg,1,0.6921,1
4,2,95,2,5,3,5, man010.jpg, cue_3.jpg,3,1.8034,1
4,2,96,2,6,3,15, man032.jpg, cue_3.jpg,3,0.7856,1
4,2,97,2,7,3,80, man124.jpg, cue_3.jpg,3,0.5138,1
4,2,98,2,8,2,120, man187.jpg, cue_2.jpg,2,0.6539,1
4,2,99,2,9,2,199, man341.jpg, cue_2.jpg,2,0.9476,1
4,2,100,2,10,2,141, man233.jpg, cue_2.jpg,2,0.5256,1
4,2,101,2,11,2,151, man249.jpg, cue_2.jpg,2,0.4888,1
4,2,102,2,12,2,185, man313.jpg, cue_2.jpg,2,0.4213,1
4,2,103,2,13,3,248, man433.jpg, cue_3.jpg,3,0.8858,1
4,2,104,2,14,1,89, man136.jpg, cue_1.jpg,2,1.0742,0
4,2,105,2,15,2,45, man076.jpg, cue_2.jpg,2,0.503,1
4,2,106,2,16,3,188, man316.jpg, cue_3.jpg,3,0.4675,1
4,2,107,2,17,3,207, man357.jpg, cue_3.jpg,3,0.5936,1
4,2,108,2,18,3,57, man093.jpg, cue_3.jpg,1,1.2902,0
4,2,109,2,19,1,100, man156.jpg, cue_1.jpg,2,0.6296,0
4,2,110,2,20,2,190, man326.jpg, cue_2.jpg,2,0.5691,1
4,2,111,2,21,1,222, man383.jpg, cue_1.jpg,1,0.4696,1
4,2,112,2,22,1,116, man179.jpg, cue_1.jpg,1,1.2036,1
4,2,113,2,23,1,13, man029.jpg, cue_1.jpg,1,0.4339,1
4,2,114,2,24,3,31, man058.jpg, cue_3.jpg,3,0.6097,1
4,2,115,2,25,1,149, man247.jpg, cue_1.jpg,1,0.6814,1
4,2,116,2,26,1,193, man332.jpg, cue_1.jpg,1,0.4295,1
4,2,117,2,27,3,62, man100.jpg, cue_3.jpg,3,0.6538,1
4,2,118,2,28,2,233, man410.jpg, cue_2.jpg,2,0.6282,1
4,2,119,2,29,2,16, man034.jpg, cue_2.jpg,2,0.4912,1
4,2,120,2,30,3,47, man078.jpg, cue_3.jpg,3,1.1766,1
4,2,121,2,31,1,93, man141.jpg, cue_1.jpg,1,0.5054,1
4,2,122,2,32,1,236, man414.jpg, cue_1.jpg,1,0.4693,1
4,2,123,2,33,1,202, man350.jpg, cue_1.jpg,1,0.4356,1
4,2,124,2,34,1,159, man260.jpg, cue_1.jpg,1,0.4032,1
4,2,125,2,35,1,227, man392.jpg, cue_1.jpg,3,1.5878,0
4,2,126,2,36,1,118, man184.jpg, cue_1.jpg,1,0.3223,1
4,2,127,2,37,3,230, man403.jpg, cue_3.jpg,3,1.0434,1
4,2,128,2,38,1,242, man424.jpg, cue_1.jpg,1,0.5246,1
4,2,129,2,39,2,219, man378.jpg, cue_2.jpg,2,0.5192,1
4,2,130,2,40,3,240, man422.jpg, cue_3.jpg,3,0.5296,1
4,2,131,2,41,2,260, man459.jpg, cue_2.jpg,2,0.4945,1
4,2,132,2,42,2,103, man160.jpg, cue_2.jpg,2,1.2267,1
4,2,133,2,43,3,153, man252.jpg, cue_3.jpg,3,0.9533,1
4,2,134,2,44,2,20, man040.jpg, cue_2.jpg,2,0.4032,1
4,2,135,2,45,3,71, man112.jpg, cue_3.jpg,3,1.5881,1
4,2,136,2,46,2,79, man123.jpg, cue_2.jpg,2,0.5633,1
4,2,137,2,47,2,244, man428.jpg, cue_2.jpg,2,0.333,1
4,2,138,2,48,1,215, man372.jpg, cue_1.jpg,1,0.5263,1
4,2,139,2,49,2,177, man299.jpg, cue_2.jpg,2,0.6203,1
4,2,140,2,50,1,217, man375.jpg, cue_1.jpg,1,0.3718,1
4,2,141,2,51,1,194, man333.jpg, cue_1.jpg,1,1.3461,1
4,2,142,2,52,1,157, man258.jpg, cue_1.jpg,1,0.4132,1
4,2,143,2,53,3,162, man268.jpg, cue_3.jpg,3,1.4533,1
4,2,144,2,54,1,210, man360.jpg, cue_1.jpg,1,0.4174,1
4,2,145,2,55,1,168, man278.jpg, cue_1.jpg,1,0.402,1
4,2,146,2,56,3,35, man062.jpg, cue_3.jpg,3,0.7864,1
4,2,147,2,57,3,106, man163.jpg, cue_3.jpg,2,1.5068,0
4,2,148,2,58,3,164, man273.jpg, cue_3.jpg,3,0.4049,1
4,2,149,2,59,3,83, man128.jpg, cue_3.jpg,3,0.5318,1
4,2,150,2,60,3,66, man106.jpg, cue_3.jpg,3,1.3928,1
4,2,151,2,61,2,56, man092.jpg, cue_2.jpg,1,1.0638,0
4,2,152,2,62,2,29, man055.jpg, cue_2.jpg,2,1.052,1
4,2,153,2,63,1,263, man462.jpg, cue_1.jpg,1,0.4015,1
4,2,154,2,64,2,49, man082.jpg, cue_2.jpg,2,0.4342,1
4,2,155,2,65,2,129, man202.jpg, cue_2.jpg,2,1.4896,1
4,2,156,2,66,3,246, man430.jpg, cue_3.jpg,1,1.333,0
4,2,157,2,67,3,75, man118.jpg, cue_3.jpg,3,0.4779,1
4,2,158,2,68,3,81, man125.jpg, cue_3.jpg,3,0.3635,1
4,2,159,2,69,2,58, man094.jpg, cue_2.jpg,2,0.6217,1
4,2,160,2,70,1,237, man416.jpg, cue_1.jpg,1,0.4207,1
4,2,161,2,71,2,110, man168.jpg, cue_2.jpg,2,1.0765,1
4,2,162,2,72,3,231, man404.jpg, cue_3.jpg,3,0.5373,1
4,2,163,2,73,2,264, man463.jpg, cue_2.jpg,2,0.4842,1
4,2,164,2,74,2,111, man169.jpg, cue_2.jpg,2,0.4333,1
4,2,165,2,75,3,53, man088.jpg, cue_3.jpg,3,0.753,1
4,2,166,2,76,1,255, man446.jpg, cue_1.jpg,1,0.3862,1
4,2,167,2,77,3,173, man287.jpg, cue_3.jpg,3,0.5789,1
4,2,168,2,78,1,266, man465.jpg, cue_1.jpg,1,0.4918,1
4,2,169,2,79,1,86, man131.jpg, cue_1.jpg,1,0.521,1
4,2,170,2,80,3,204, man352.jpg, cue_3.jpg,3,0.4686,1
4,2,171,2,81,1,73, man115.jpg, cue_1.jpg,2,0.6656,0
4,2,172,2,82,2,152, man250.jpg, cue_2.jpg,2,0.4883,1
4,2,173,2,83,3,76, man120.jpg, cue_3.jpg,3,0.6618,1
4,2,174,2,84,1,235, man413.jpg, cue_1.jpg,1,0.5551,1
4,2,175,2,85,2,69, man110.jpg, cue_2.jpg,2,0.5812,1
4,2,176,2,86,1,247, man431.jpg, cue_1.jpg,1,0.3983,1
4,2,177,2,87,3,64, man102.jpg, cue_3.jpg,3,0.5704,1
4,2,178,2,88,2,158, man259.jpg, cue_2.jpg,2,0.5192,1
4,2,179,2,89,2,102, man158.jpg, cue_2.jpg,2,0.5632,1
4,2,180,2,90,2,85, man130.jpg, cue_2.jpg,2,0.4266,1
4,2,181,3,1,1,222, man383.jpg, cue_1.jpg,1,0.735,1
4,2,182,3,2,2,20, man040.jpg, cue_2.jpg,2,0.6412,1
4,2,183,3,3,3,153, man252.jpg, cue_3.jpg,3,0.7288,1
4,2,184,3,4,3,248, man433.jpg, cue_3.jpg,3,0.7469,1
4,2,185,3,5,2,244, man428.jpg, cue_2.jpg,2,0.6684,1
4,2,186,3,6,1,236, man414.jpg, cue_1.jpg,1,0.5773,1
4,2,187,3,7,2,85, man130.jpg, cue_2.jpg,2,0.5226,1
4,2,188,3,8,1,202, man350.jpg, cue_1.jpg,1,0.4859,1
4,2,189,3,9,3,170, man281.jpg, cue_3.jpg,1,0.6912,0
4,2,190,3,10,3,162, man268.jpg, cue_3.jpg,3,0.4719,1
4,2,191,3,11,3,207, man357.jpg, cue_3.jpg,3,0.4851,1
4,2,192,3,12,2,79, man123.jpg, cue_2.jpg,2,0.5948,1
4,2,193,3,13,1,200, man345.jpg, cue_1.jpg,1,0.4588,1
4,2,194,3,14,2,233, man410.jpg, cue_2.jpg,2,0.521,1
4,2,195,3,15,1,159, man260.jpg, cue_1.jpg,1,0.4369,1
4,2,196,3,16,2,219, man378.jpg, cue_2.jpg,2,0.4516,1
4,2,197,3,17,3,81, man125.jpg, cue_3.jpg,3,0.5456,1
4,2,198,3,18,1,237, man416.jpg, cue_1.jpg,2,1.1004,0
4,2,199,3,19,3,31, man058.jpg, cue_3.jpg,3,0.6207,1
4,2,200,3,20,3,71, man112.jpg, cue_3.jpg,3,0.807,1
4,2,201,3,21,2,58, man094.jpg, cue_2.jpg,2,0.4706,1
4,2,202,3,22,2,49, man082.jpg, cue_2.jpg,2,0.5126,1
4,2,203,3,23,3,188, man316.jpg, cue_3.jpg,3,0.4958,1
4,2,204,3,24,3,75, man118.jpg, cue_3.jpg,3,0.5243,1
4,2,205,3,25,2,199, man341.jpg, cue_2.jpg,2,0.7736,1
4,2,206,3,26,3,64, man102.jpg, cue_3.jpg,3,0.7295,1
4,2,207,3,27,1,217, man375.jpg, cue_1.jpg,1,0.4281,1
4,2,208,3,28,1,89, man136.jpg, cue_1.jpg,1,0.4591,1
4,2,209,3,29,1,193, man332.jpg, cue_1.jpg,1,0.4574,1
4,2,210,3,30,1,100, man156.jpg, cue_1.jpg,2,0.792,0
4,2,211,3,31,3,164, man273.jpg, cue_3.jpg,3,0.8567,1
4,2,212,3,32,2,152, man250.jpg, cue_2.jpg,2,0.4384,1
4,2,213,3,33,1,235, man413.jpg, cue_1.jpg,1,0.5021,1
4,2,214,3,34,2,185, man313.jpg, cue_2.jpg,2,0.6421,1
4,2,215,3,35,1,168, man278.jpg, cue_1.jpg,1,0.9534,1
4,2,216,3,36,1,266, man465.jpg, cue_1.jpg,1,0.4344,1
4,2,217,3,37,1,247, man431.jpg, cue_1.jpg,1,0.4174,1
4,2,218,3,38,1,118, man184.jpg, cue_1.jpg,1,0.4813,1
4,2,219,3,39,2,129, man202.jpg, cue_2.jpg,2,0.7821,1
4,2,220,3,40,3,47, man078.jpg, cue_3.jpg,3,0.7664,1
4,2,221,3,41,2,190, man326.jpg, cue_2.jpg,2,0.9435,1
4,2,222,3,42,2,16, man034.jpg, cue_2.jpg,2,0.8709,1
4,2,223,3,43,1,157, man258.jpg, cue_1.jpg,1,0.5346,1
4,2,224,3,44,2,151, man249.jpg, cue_2.jpg,2,0.4661,1
4,2,225,3,45,2,120, man187.jpg, cue_2.jpg,2,0.5281,1
4,2,226,3,46,3,5, man010.jpg, cue_3.jpg,3,0.5706,1
4,2,227,3,47,3,66, man106.jpg, cue_3.jpg,3,0.4682,1
4,2,228,3,48,1,86, man131.jpg, cue_1.jpg,1,0.3199,1
4,2,229,3,49,2,141, man233.jpg, cue_2.jpg,2,0.7579,1
4,2,230,3,50,2,29, man055.jpg, cue_2.jpg,2,0.4402,1
4,2,231,3,51,3,76, man120.jpg, cue_3.jpg,3,0.5491,1
4,2,232,3,52,1,242, man424.jpg, cue_1.jpg,1,0.4163,1
4,2,233,3,53,3,230, man403.jpg, cue_3.jpg,3,0.4326,1
4,2,234,3,54,2,234, man412.jpg, cue_2.jpg,2,0.4641,1
4,2,235,3,55,1,149, man247.jpg, cue_1.jpg,1,0.4771,1
4,2,236,3,56,3,240, man422.jpg, cue_3.jpg,3,0.3625,1
4,2,237,3,57,3,62, man100.jpg, cue_3.jpg,3,0.4739,1
4,2,238,3,58,3,231, man404.jpg, cue_3.jpg,3,0.4412,1
4,2,239,3,59,1,194, man333.jpg, cue_1.jpg,1,0.376,1
4,2,240,3,60,2,103, man160.jpg, cue_2.jpg,2,1.0465,1
4,2,241,3,61,3,246, man430.jpg, cue_3.jpg,3,0.6225,1
4,2,242,3,62,3,173, man287.jpg, cue_3.jpg,3,0.4066,1
4,2,243,3,63,3,83, man128.jpg, cue_3.jpg,3,0.5015,1
4,2,244,3,64,1,60, man096.jpg, cue_1.jpg,1,0.4677,1
4,2,245,3,65,2,158, man259.jpg, cue_2.jpg,2,0.5934,1
4,2,246,3,66,2,260, man459.jpg, cue_2.jpg,2,0.4241,1
4,2,247,3,67,1,13, man029.jpg, cue_1.jpg,1,0.3933,1
4,2,248,3,68,3,15, man032.jpg, cue_3.jpg,3,0.6976,1
4,2,249,3,69,1,116, man179.jpg, cue_1.jpg,1,0.4131,1
4,2,250,3,70,1,227, man392.jpg, cue_1.jpg,1,1.5967,1
4,2,251,3,71,3,35, man062.jpg, cue_3.jpg,3,0.5551,1
4,2,252,3,72,1,93, man141.jpg, cue_1.jpg,1,0.7407,1
4,2,253,3,73,1,255, man446.jpg, cue_1.jpg,1,0.4073,1
4,2,254,3,74,2,110, man168.jpg, cue_2.jpg,2,0.9204,1
4,2,255,3,75,1,263, man462.jpg, cue_1.jpg,1,0.5149,1
4,2,256,3,76,2,177, man299.jpg, cue_2.jpg,3,0.8468,0
4,2,257,3,77,3,80, man124.jpg, cue_3.jpg,3,0.5537,1
4,2,258,3,78,3,53, man088.jpg, cue_3.jpg,3,0.6464,1
4,2,259,3,79,3,57, man093.jpg, cue_3.jpg,1,1.2607,0
4,2,260,3,80,1,215, man372.jpg, cue_1.jpg,1,0.4574,1
4,2,261,3,81,2,69, man110.jpg, cue_2.jpg,2,0.5999,1
4,2,262,3,82,2,102, man158.jpg, cue_2.jpg,2,0.6247,1
4,2,263,3,83,2,264, man463.jpg, cue_2.jpg,2,0.4723,1
4,2,264,3,84,1,210, man360.jpg, cue_1.jpg,1,0.3893,1
4,2,265,3,85,1,73, man115.jpg, cue_1.jpg,2,1.431,0
4,2,266,3,86,2,111, man169.jpg, cue_2.jpg,2,0.5397,1
4,2,267,3,87,2,45, man076.jpg, cue_2.jpg,2,0.4386,1
4,2,268,3,88,3,204, man352.jpg, cue_3.jpg,3,0.5339,1
4,2,269,3,89,3,106, man163.jpg, cue_3.jpg,3,0.6727,1
4,2,270,3,90,2,56, man092.jpg, cue_2.jpg,2,1.7183,1
4,2,271,4,1,2,219, man378.jpg, cue_2.jpg,2,0.7402,1
4,2,272,4,2,2,110, man168.jpg, cue_2.jpg,2,0.9479,1
4,2,273,4,3,2,199, man341.jpg, cue_2.jpg,2,0.6564,1
4,2,274,4,4,3,231, man404.jpg, cue_3.jpg,3,0.6141,1
4,2,275,4,5,2,85, man130.jpg, cue_2.jpg,2,0.5887,1
4,2,276,4,6,3,106, man163.jpg, cue_3.jpg,3,0.7269,1
4,2,277,4,7,1,222, man383.jpg, cue_1.jpg,1,0.5218,1
4,2,278,4,8,2,185, man313.jpg, cue_2.jpg,2,0.5655,1
4,2,279,4,9,3,170, man281.jpg, cue_3.jpg,3,0.5597,1
4,2,280,4,10,1,210, man360.jpg, cue_1.jpg,1,0.4895,1
4,2,281,4,11,2,69, man110.jpg, cue_2.jpg,2,1.0147,1
4,2,282,4,12,3,76, man120.jpg, cue_3.jpg,3,0.4935,1
4,2,283,4,13,3,31, man058.jpg, cue_3.jpg,3,0.6016,1
4,2,284,4,14,1,168, man278.jpg, cue_1.jpg,1,0.5451,1
4,2,285,4,15,3,173, man287.jpg, cue_3.jpg,3,0.6198,1
4,2,286,4,16,2,58, man094.jpg, cue_2.jpg,2,0.4993,1
4,2,287,4,17,2,103, man160.jpg, cue_2.jpg,3,1.3431,0
4,2,288,4,18,3,35, man062.jpg, cue_3.jpg,3,0.4729,1
4,2,289,4,19,3,240, man422.jpg, cue_3.jpg,3,0.4683,1
4,2,290,4,20,1,266, man465.jpg, cue_1.jpg,1,0.5649,1
4,2,291,4,21,2,141, man233.jpg, cue_2.jpg,2,0.5906,1
4,2,292,4,22,1,193, man332.jpg, cue_1.jpg,1,0.4377,1
4,2,293,4,23,2,177, man299.jpg, cue_2.jpg,2,1.5592,1
4,2,294,4,24,3,75, man118.jpg, cue_3.jpg,3,0.4232,1
4,2,295,4,25,1,116, man179.jpg, cue_1.jpg,1,0.4713,1
4,2,296,4,26,3,207, man357.jpg, cue_3.jpg,3,0.5011,1
4,2,297,4,27,1,202, man350.jpg, cue_1.jpg,1,0.53,1
4,2,298,4,28,2,20, man040.jpg, cue_2.jpg,2,0.4761,1
4,2,299,4,29,2,111, man169.jpg, cue_2.jpg,2,0.4575,1
4,2,300,4,30,1,217, man375.jpg, cue_1.jpg,1,0.4558,1
4,2,301,4,31,1,236, man414.jpg, cue_1.jpg,1,0.4705,1
4,2,302,4,32,2,152, man250.jpg, cue_2.jpg,2,0.4365,1
4,2,303,4,33,2,102, man158.jpg, cue_2.jpg,2,0.5474,1
4,2,304,4,34,1,227, man392.jpg, cue_1.jpg,1,0.6218,1
4,2,305,4,35,2,29, man055.jpg, cue_2.jpg,2,0.4054,1
4,2,306,4,36,2,260, man459.jpg, cue_2.jpg,2,0.3741,1
4,2,307,4,37,3,66, man106.jpg, cue_3.jpg,3,0.4541,1
4,2,308,4,38,1,60, man096.jpg, cue_1.jpg,1,0.4385,1
4,2,309,4,39,2,244, man428.jpg, cue_2.jpg,2,0.47,1
4,2,310,4,40,1,157, man258.jpg, cue_1.jpg,1,0.4339,1
4,2,311,4,41,1,263, man462.jpg, cue_1.jpg,1,0.3713,1
4,2,312,4,42,1,255, man446.jpg, cue_1.jpg,1,0.4694,1
4,2,313,4,43,1,86, man131.jpg, cue_1.jpg,1,0.4012,1
4,2,314,4,44,2,129, man202.jpg, cue_2.jpg,2,0.6436,1
4,2,315,4,45,1,13, man029.jpg, cue_1.jpg,1,0.3939,1
4,2,316,4,46,3,81, man125.jpg, cue_3.jpg,3,0.4243,1
4,2,317,4,47,1,215, man372.jpg, cue_1.jpg,1,0.3772,1
4,2,318,4,48,1,93, man141.jpg, cue_1.jpg,1,0.4911,1
4,2,319,4,49,2,79, man123.jpg, cue_2.jpg,2,0.6293,1
4,2,320,4,50,3,15, man032.jpg, cue_3.jpg,3,0.9751,1
4,2,321,4,51,2,233, man410.jpg, cue_2.jpg,2,0.4722,1
4,2,322,4,52,2,190, man326.jpg, cue_2.jpg,2,0.7886,1
4,2,323,4,53,2,151, man249.jpg, cue_2.jpg,2,0.4074,1
4,2,324,4,54,1,200, man345.jpg, cue_1.jpg,1,0.4399,1
4,2,325,4,55,1,194, man333.jpg, cue_1.jpg,1,0.3753,1
4,2,326,4,56,3,153, man252.jpg, cue_3.jpg,3,0.4721,1
4,2,327,4,57,3,230, man403.jpg, cue_3.jpg,3,0.374,1
4,2,328,4,58,2,264, man463.jpg, cue_2.jpg,2,0.3121,1
4,2,329,4,59,1,242, man424.jpg, cue_1.jpg,1,0.3479,1
4,2,330,4,60,1,159, man260.jpg, cue_1.jpg,1,0.3822,1
4,2,331,4,61,3,47, man078.jpg, cue_3.jpg,3,0.6874,1
4,2,332,4,62,3,71, man112.jpg, cue_3.jpg,3,0.4516,1
4,2,333,4,63,2,158, man259.jpg, cue_2.jpg,2,0.4503,1
4,2,334,4,64,3,62, man100.jpg, cue_3.jpg,3,0.3683,1
4,2,335,4,65,1,149, man247.jpg, cue_1.jpg,1,0.4179,1
4,2,336,4,66,1,73, man115.jpg, cue_1.jpg,3,1.4581,0
4,2,337,4,67,2,56, man092.jpg, cue_2.jpg,3,1.3974,0
4,2,338,4,68,3,188, man316.jpg, cue_3.jpg,3,0.4303,1
4,2,339,4,69,3,248, man433.jpg, cue_3.jpg,3,0.4612,1
4,2,340,4,70,2,49, man082.jpg, cue_2.jpg,2,0.9547,1
4,2,341,4,71,3,64, man102.jpg, cue_3.jpg,3,0.5154,1
4,2,342,4,72,3,83, man128.jpg, cue_3.jpg,3,0.4953,1
4,2,343,4,73,3,162, man268.jpg, cue_3.jpg,3,0.4433,1
4,2,344,4,74,2,16, man034.jpg, cue_2.jpg,2,0.5225,1
4,2,345,4,75,1,118, man184.jpg, cue_1.jpg,1,0.4698,1
4,2,346,4,76,3,164, man273.jpg, cue_3.jpg,3,0.4191,1
4,2,347,4,77,1,247, man431.jpg, cue_1.jpg,1,0.4033,1
4,2,348,4,78,3,246, man430.jpg, cue_3.jpg,3,0.7396,1
4,2,349,4,79,3,53, man088.jpg, cue_3.jpg,3,0.4216,1
4,2,350,4,80,3,5, man010.jpg, cue_3.jpg,3,1.4296,1
4,2,351,4,81,1,235, man413.jpg, cue_1.jpg,1,0.3761,1
4,2,352,4,82,3,204, man352.jpg, cue_3.jpg,3,0.4115,1
4,2,353,4,83,2,234, man412.jpg, cue_2.jpg,2,0.5234,1
4,2,354,4,84,1,237, man416.jpg, cue_1.jpg,1,1.6526,1
4,2,355,4,85,2,45, man076.jpg, cue_2.jpg,2,0.5316,1
4,2,356,4,86,2,120, man187.jpg, cue_2.jpg,2,0.5913,1
4,2,357,4,87,3,80, man124.jpg, cue_3.jpg,3,0.3593,1
4,2,358,4,88,1,100, man156.jpg, cue_1.jpg,1,1.0019,1
4,2,359,4,89,3,57, man093.jpg, cue_3.jpg,3,0.8811,1
4,2,360,4,90,1,89, man136.jpg, cue_1.jpg,1,0.4768,1
5,1,1,1,1,1,206, man355.jpg, cue_1.jpg,1,1.0223,1
5,1,2,1,2,2,267, man466.jpg, cue_2.jpg,2,0.869,1
5,1,3,1,3,3,270, man471.jpg, cue_3.jpg,3,0.7549,1
5,1,4,1,4,3,185, man313.jpg, cue_3.jpg,3,1.2203,1
5,1,5,1,5,1,162, man268.jpg, cue_1.jpg,2,1.1224,0
5,1,6,1,6,3,41, man070.jpg, cue_3.jpg,3,1.1881,1
5,1,7,1,7,1,266, man465.jpg, cue_1.jpg,1,0.7542,1
5,1,8,1,8,3,21, man041.jpg, cue_3.jpg,2,0.5984,0
5,1,9,1,9,3,17, man035.jpg, cue_3.jpg,1,0.8464,0
5,1,10,1,10,1,94, man144.jpg, cue_1.jpg,2,0.764,0
5,1,11,1,11,1,141, man233.jpg, cue_1.jpg,3,0.6532,0
5,1,12,1,12,2,103, man160.jpg, cue_2.jpg,2,0.6279,1
5,1,13,1,13,2,227, man392.jpg, cue_2.jpg,1,0.7466,0
5,1,14,1,14,2,251, man437.jpg, cue_2.jpg,2,0.5889,1
5,1,15,1,15,2,26, man048.jpg, cue_2.jpg,3,0.9176,0
5,1,16,1,16,3,231, man404.jpg, cue_3.jpg,2,0.849,0
5,1,17,1,17,1,264, man463.jpg, cue_1.jpg,1,0.7511,1
5,1,18,1,18,3,47, man078.jpg, cue_3.jpg,2,0.8151,0
5,1,19,1,19,2,126, man196.jpg, cue_2.jpg,2,0.5917,1
5,1,20,1,20,2,225, man389.jpg, cue_2.jpg,2,0.5056,1
5,1,21,1,21,1,4, man007.jpg, cue_1.jpg,1,0.5341,1
5,1,22,1,22,1,168, man278.jpg, cue_1.jpg,1,0.5932,1
5,1,23,1,23,3,245, man429.jpg, cue_3.jpg,3,0.9059,1
5,1,24,1,24,1,258, man451.jpg, cue_1.jpg,3,0.8049,0
5,1,25,1,25,1,30, man056.jpg, cue_1.jpg,1,0.6607,1
5,1,26,1,26,2,237, man416.jpg, cue_2.jpg,2,0.5054,1
5,1,27,1,27,3,53, man088.jpg, cue_3.jpg,3,1.2216,1
5,1,28,1,28,1,99, man155.jpg, cue_1.jpg,1,1.3322,1
5,1,29,1,29,3,74, man117.jpg, cue_3.jpg,2,0.9088,0
5,1,30,1,30,3,253, man443.jpg, cue_3.jpg,3,0.8088,1
5,1,31,1,31,2,67, man107.jpg, cue_2.jpg,2,0.5674,1
5,1,32,1,32,3,123, man190.jpg, cue_3.jpg,3,1.1207,1
5,1,33,1,33,1,199, man341.jpg, cue_1.jpg,3,1.2032,0
5,1,34,1,34,2,182, man310.jpg, cue_2.jpg,2,0.5306,1
5,1,35,1,35,2,116, man179.jpg, cue_2.jpg,2,0.4618,1
5,1,36,1,36,3,81, man125.jpg, cue_3.jpg,3,1.452,1
5,1,37,1,37,2,157, man258.jpg, cue_2.jpg,3,1.2475,0
5,1,38,1,38,2,256, man447.jpg, cue_2.jpg,3,1.2288,0
5,1,39,1,39,2,58, man094.jpg, cue_2.jpg,1,1.0657,0
5,1,40,1,40,2,189, man322.jpg, cue_2.jpg,1,1.4876,0
5,1,41,1,41,3,120, man187.jpg, cue_3.jpg,2,1.7299,0
5,1,42,1,42,1,144, man240.jpg, cue_1.jpg,2,1.0989,0
5,1,43,1,43,3,119, man186.jpg, cue_3.jpg,3,0.6862,1
5,1,44,1,44,3,153, man252.jpg, cue_3.jpg,3,1.1551,1
5,1,45,1,45,2,8, man019.jpg, cue_2.jpg,2,0.8992,1
5,1,46,1,46,1,78, man122.jpg, cue_1.jpg,1,1.1333,1
5,1,47,1,47,3,203, man351.jpg, cue_3.jpg,3,0.9448,1
5,1,48,1,48,2,213, man366.jpg, cue_2.jpg,2,0.7146,1
5,1,49,1,49,1,87, man133.jpg, cue_1.jpg,1,1.0854,1
5,1,50,1,50,3,42, man071.jpg, cue_3.jpg,3,0.7373,1
5,1,51,1,51,2,202, man350.jpg, cue_2.jpg,2,0.7045,1
5,1,52,1,52,1,60, man096.jpg, cue_1.jpg,3,0.5994,0
5,1,53,1,53,1,173, man287.jpg, cue_1.jpg,3,1.8719,0
5,1,54,1,54,1,183, man311.jpg, cue_1.jpg,2,1.267,0
5,1,55,1,55,2,29, man055.jpg, cue_2.jpg,2,1.6793,1
5,1,56,1,56,3,226, man390.jpg, cue_3.jpg,1,1.2416,0
5,1,57,1,57,1,114, man174.jpg, cue_1.jpg,1,0.4716,1
5,1,58,1,58,3,97, man153.jpg, cue_3.jpg,3,0.8854,1
5,1,59,1,59,2,210, man360.jpg, cue_2.jpg,3,1.3453,0
5,1,60,1,60,3,118, man184.jpg, cue_3.jpg,2,0.9381,0
5,1,61,1,61,2,175, man291.jpg, cue_2.jpg,1,0.6927,0
5,1,62,1,62,1,170, man281.jpg, cue_1.jpg,3,0.8087,0
5,1,63,1,63,2,5, man010.jpg, cue_2.jpg,3,1.0639,0
5,1,64,1,64,2,192, man330.jpg, cue_2.jpg,2,0.5403,1
5,1,65,1,65,2,220, man380.jpg, cue_2.jpg,2,1.7192,1
5,1,66,1,66,3,9, man022.jpg, cue_3.jpg,2,1.1051,0
5,1,67,1,67,1,242, man424.jpg, cue_1.jpg,1,0.8525,1
5,1,68,1,68,3,31, man058.jpg, cue_3.jpg,2,1.1383,0
5,1,69,1,69,1,7, man017.jpg, cue_1.jpg,3,1.1087,0
5,1,70,1,70,2,244, man428.jpg, cue_2.jpg,3,1.271,0
5,1,71,1,71,1,11, man025.jpg, cue_1.jpg,2,0.7078,0
5,1,72,1,72,3,193, man332.jpg, cue_3.jpg,3,0.9994,1
5,1,73,1,73,3,38, man066.jpg, cue_3.jpg,1,1.7716,0
5,1,74,1,74,2,2, man004.jpg, cue_2.jpg,2,1.4939,1
5,1,75,1,75,1,19, man039.jpg, cue_1.jpg,1,0.761,1
5,1,76,1,76,1,63, man101.jpg, cue_1.jpg,1,0.858,1
5,1,77,1,77,1,79, man123.jpg, cue_1.jpg,1,1.7203,1
5,1,78,1,78,2,73, man115.jpg, cue_2.jpg,2,1.1529,1
5,1,79,1,79,2,216, man374.jpg, cue_2.jpg,2,0.6264,1
5,1,80,1,80,2,165, man275.jpg, cue_2.jpg,3,1.0629,0
5,1,81,1,81,1,133, man207.jpg, cue_1.jpg,1,0.6054,1
5,1,82,1,82,1,88, man135.jpg, cue_1.jpg,1,0.7412,1
5,1,83,1,83,1,156, man257.jpg, cue_1.jpg,1,0.4708,1
5,1,84,1,84,3,171, man282.jpg, cue_3.jpg,3,1.4451,1
5,1,85,1,85,3,235, man413.jpg, cue_3.jpg,3,1.369,1
5,1,86,1,86,3,28, man052.jpg, cue_3.jpg,2,0.8492,0
5,1,87,1,87,3,77, man121.jpg, cue_3.jpg,2,0.8622,0
5,1,88,1,88,3,143, man237.jpg, cue_3.jpg,1,0.7952,0
5,1,89,1,89,1,201, man348.jpg, cue_1.jpg,2,1.6114,0
5,1,90,1,90,2,12, man027.jpg, cue_2.jpg,2,1.0158,1
5,1,91,2,1,2,67, man107.jpg, cue_2.jpg,2,0.7076,1
5,1,92,2,2,3,118, man184.jpg, cue_3.jpg,3,0.4058,1
5,1,93,2,3,1,162, man268.jpg, cue_1.jpg,1,0.4562,1
5,1,94,2,4,3,97, man153.jpg, cue_3.jpg,3,0.3423,1
5,1,95,2,5,2,175, man291.jpg, cue_2.jpg,2,0.3905,1
5,1,96,2,6,3,171, man282.jpg, cue_3.jpg,3,0.4584,1
5,1,97,2,7,3,38, man066.jpg, cue_3.jpg,3,0.537,1
5,1,98,2,8,1,156, man257.jpg, cue_1.jpg,1,0.4682,1
5,1,99,2,9,1,79, man123.jpg, cue_1.jpg,1,0.3383,1
5,1,100,2,10,2,73, man115.jpg, cue_2.jpg,2,0.406,1
5,1,101,2,11,2,267, man466.jpg, cue_2.jpg,2,0.3425,1
5,1,102,2,12,2,8, man019.jpg, cue_2.jpg,2,0.3145,1
5,1,103,2,13,1,19, man039.jpg, cue_1.jpg,1,0.3027,1
5,1,104,2,14,2,210, man360.jpg, cue_2.jpg,2,0.3074,1
5,1,105,2,15,1,114, man174.jpg, cue_1.jpg,1,0.3601,1
5,1,106,2,16,2,192, man330.jpg, cue_2.jpg,2,0.3624,1
5,1,107,2,17,1,30, man056.jpg, cue_1.jpg,1,0.3002,1
5,1,108,2,18,1,264, man463.jpg, cue_1.jpg,1,0.3053,1
5,1,109,2,19,1,141, man233.jpg, cue_1.jpg,1,0.4064,1
5,1,110,2,20,2,225, man389.jpg, cue_2.jpg,2,0.3754,1
5,1,111,2,21,1,206, man355.jpg, cue_1.jpg,1,0.3105,1
5,1,112,2,22,3,203, man351.jpg, cue_3.jpg,3,0.3658,1
5,1,113,2,23,1,88, man135.jpg, cue_1.jpg,1,0.3999,1
5,1,114,2,24,1,183, man311.jpg, cue_1.jpg,2,1.2007,0
5,1,115,2,25,1,7, man017.jpg, cue_1.jpg,1,1.0081,1
5,1,116,2,26,1,201, man348.jpg, cue_1.jpg,1,0.3756,1
5,1,117,2,27,2,227, man392.jpg, cue_2.jpg,3,1.3839,0
5,1,118,2,28,3,47, man078.jpg, cue_3.jpg,3,0.6566,1
5,1,119,2,29,2,237, man416.jpg, cue_2.jpg,2,0.5349,1
5,1,120,2,30,3,53, man088.jpg, cue_3.jpg,3,0.4496,1
5,1,121,2,31,2,157, man258.jpg, cue_2.jpg,2,0.9274,1
5,1,122,2,32,3,143, man237.jpg, cue_3.jpg,3,0.3939,1
5,1,123,2,33,2,202, man350.jpg, cue_2.jpg,2,0.4265,1
5,1,124,2,34,3,231, man404.jpg, cue_3.jpg,3,0.426,1
5,1,125,2,35,1,60, man096.jpg, cue_1.jpg,1,0.4576,1
5,1,126,2,36,3,31, man058.jpg, cue_3.jpg,3,1.1595,1
5,1,127,2,37,3,17, man035.jpg, cue_3.jpg,1,0.7608,0
5,1,128,2,38,3,42, man071.jpg, cue_3.jpg,3,1.2558,1
5,1,129,2,39,2,182, man310.jpg, cue_2.jpg,2,0.4549,1
5,1,130,2,40,1,99, man155.jpg, cue_1.jpg,1,0.4846,1
5,1,131,2,41,2,244, man428.jpg, cue_2.jpg,2,0.6261,1
5,1,132,2,42,3,153, man252.jpg, cue_3.jpg,3,0.5564,1
5,1,133,2,43,3,120, man187.jpg, cue_3.jpg,7,0,0
5,1,134,2,44,3,9, man022.jpg, cue_3.jpg,3,1.1468,1
5,1,135,2,45,2,126, man196.jpg, cue_2.jpg,2,1.1963,1
5,1,136,2,46,1,133, man207.jpg, cue_1.jpg,1,0.379,1
5,1,137,2,47,1,258, man451.jpg, cue_1.jpg,1,1.8144,1
5,1,138,2,48,1,199, man341.jpg, cue_1.jpg,1,0.4879,1
5,1,139,2,49,3,21, man041.jpg, cue_3.jpg,3,1.5761,1
5,1,140,2,50,1,266, man465.jpg, cue_1.jpg,1,0.7913,1
5,1,141,2,51,2,103, man160.jpg, cue_2.jpg,3,1.7357,0
5,1,142,2,52,3,77, man121.jpg, cue_3.jpg,3,0.6567,1
5,1,143,2,53,1,173, man287.jpg, cue_1.jpg,1,1.5588,1
5,1,144,2,54,2,58, man094.jpg, cue_2.jpg,3,0.9515,0
5,1,145,2,55,1,144, man240.jpg, cue_1.jpg,1,0.4304,1
5,1,146,2,56,2,256, man447.jpg, cue_2.jpg,3,1.6169,0
5,1,147,2,57,3,123, man190.jpg, cue_3.jpg,3,1.3261,1
5,1,148,2,58,3,226, man390.jpg, cue_3.jpg,3,1.3841,1
5,1,149,2,59,3,74, man117.jpg, cue_3.jpg,3,1.4556,1
5,1,150,2,60,3,235, man413.jpg, cue_3.jpg,3,0.4834,1
5,1,151,2,61,3,81, man125.jpg, cue_3.jpg,3,1.568,1
5,1,152,2,62,1,94, man144.jpg, cue_1.jpg,1,0.4614,1
5,1,153,2,63,2,12, man027.jpg, cue_2.jpg,2,1.0533,1
5,1,154,2,64,1,4, man007.jpg, cue_1.jpg,1,0.4345,1
5,1,155,2,65,3,270, man471.jpg, cue_3.jpg,3,0.4635,1
5,1,156,2,66,3,193, man332.jpg, cue_3.jpg,3,0.3675,1
5,1,157,2,67,2,29, man055.jpg, cue_2.jpg,2,0.4176,1
5,1,158,2,68,3,28, man052.jpg, cue_3.jpg,3,0.382,1
5,1,159,2,69,1,78, man122.jpg, cue_1.jpg,1,1.3458,1
5,1,160,2,70,2,5, man010.jpg, cue_2.jpg,3,0.9341,0
5,1,161,2,71,3,185, man313.jpg, cue_3.jpg,3,0.5013,1
5,1,162,2,72,2,26, man048.jpg, cue_2.jpg,2,0.6257,1
5,1,163,2,73,1,63, man101.jpg, cue_1.jpg,1,0.9048,1
5,1,164,2,74,1,170, man281.jpg, cue_1.jpg,2,1.2519,0
5,1,165,2,75,3,119, man186.jpg, cue_3.jpg,7,0,0
5,1,166,2,76,2,116, man179.jpg, cue_2.jpg,2,0.4726,1
5,1,167,2,77,2,2, man004.jpg, cue_2.jpg,3,1.4303,0
5,1,168,2,78,1,168, man278.jpg, cue_1.jpg,1,0.9696,1
5,1,169,2,79,1,87, man133.jpg, cue_1.jpg,1,0.8851,1
5,1,170,2,80,1,11, man025.jpg, cue_1.jpg,1,0.4488,1
5,1,171,2,81,2,189, man322.jpg, cue_2.jpg,2,0.5746,1
5,1,172,2,82,2,216, man374.jpg, cue_2.jpg,2,0.456,1
5,1,173,2,83,2,251, man437.jpg, cue_2.jpg,2,0.7263,1
5,1,174,2,84,2,220, man380.jpg, cue_2.jpg,3,0.8094,0
5,1,175,2,85,1,242, man424.jpg, cue_1.jpg,1,0.4414,1
5,1,176,2,86,2,213, man366.jpg, cue_2.jpg,2,0.4408,1
5,1,177,2,87,3,245, man429.jpg, cue_3.jpg,3,0.7602,1
5,1,178,2,88,2,165, man275.jpg, cue_2.jpg,2,0.5215,1
5,1,179,2,89,3,253, man443.jpg, cue_3.jpg,3,0.6615,1
5,1,180,2,90,3,41, man070.jpg, cue_3.jpg,3,0.5386,1
5,1,181,3,1,3,9, man022.jpg, cue_3.jpg,3,0.5891,1
5,1,182,3,2,1,60, man096.jpg, cue_1.jpg,1,0.757,1
5,1,183,3,3,2,5, man010.jpg, cue_2.jpg,2,0.6323,1
5,1,184,3,4,1,30, man056.jpg, cue_1.jpg,1,1.1673,1
5,1,185,3,5,3,185, man313.jpg, cue_3.jpg,3,0.6072,1
5,1,186,3,6,2,126, man196.jpg, cue_2.jpg,2,0.4718,1
5,1,187,3,7,3,270, man471.jpg, cue_3.jpg,1,1.3979,0
5,1,188,3,8,2,165, man275.jpg, cue_2.jpg,2,0.796,1
5,1,189,3,9,2,202, man350.jpg, cue_2.jpg,2,0.3637,1
5,1,190,3,10,3,226, man390.jpg, cue_3.jpg,3,1.8681,1
5,1,191,3,11,3,42, man071.jpg, cue_3.jpg,3,0.4013,1
5,1,192,3,12,1,156, man257.jpg, cue_1.jpg,1,0.3383,1
5,1,193,3,13,2,237, man416.jpg, cue_2.jpg,2,0.3095,1
5,1,194,3,14,3,81, man125.jpg, cue_3.jpg,3,0.4901,1
5,1,195,3,15,3,253, man443.jpg, cue_3.jpg,3,0.3109,1
5,1,196,3,16,2,220, man380.jpg, cue_2.jpg,3,1.5476,0
5,1,197,3,17,3,118, man184.jpg, cue_3.jpg,1,1.4355,0
5,1,198,3,18,1,94, man144.jpg, cue_1.jpg,1,0.401,1
5,1,199,3,19,1,144, man240.jpg, cue_1.jpg,1,0.4169,1
5,1,200,3,20,1,170, man281.jpg, cue_1.jpg,1,0.657,1
5,1,201,3,21,1,168, man278.jpg, cue_1.jpg,1,0.5338,1
5,1,202,3,22,3,235, man413.jpg, cue_3.jpg,3,0.371,1
5,1,203,3,23,1,63, man101.jpg, cue_1.jpg,1,0.2768,1
5,1,204,3,24,3,123, man190.jpg, cue_3.jpg,3,0.2984,1
5,1,205,3,25,3,171, man282.jpg, cue_3.jpg,3,0.3829,1
5,1,206,3,26,2,67, man107.jpg, cue_2.jpg,2,0.4644,1
5,1,207,3,27,1,7, man017.jpg, cue_1.jpg,1,1.0061,1
5,1,208,3,28,2,267, man466.jpg, cue_2.jpg,2,0.374,1
5,1,209,3,29,2,227, man392.jpg, cue_2.jpg,3,1.2404,0
5,1,210,3,30,3,143, man237.jpg, cue_3.jpg,3,0.8848,1
5,1,211,3,31,3,41, man070.jpg, cue_3.jpg,3,0.5309,1
5,1,212,3,32,2,216, man374.jpg, cue_2.jpg,2,0.3493,1
5,1,213,3,33,1,19, man039.jpg, cue_1.jpg,1,0.3681,1
5,1,214,3,34,3,21, man041.jpg, cue_3.jpg,3,0.4982,1
5,1,215,3,35,2,58, man094.jpg, cue_2.jpg,2,0.4946,1
5,1,216,3,36,3,97, man153.jpg, cue_3.jpg,3,0.3466,1
5,1,217,3,37,1,88, man135.jpg, cue_1.jpg,1,0.3977,1
5,1,218,3,38,1,258, man451.jpg, cue_1.jpg,1,0.3344,1
5,1,219,3,39,2,8, man019.jpg, cue_2.jpg,2,0.304,1
5,1,220,3,40,2,256, man447.jpg, cue_2.jpg,2,0.5034,1
5,1,221,3,41,2,29, man055.jpg, cue_2.jpg,2,0.3079,1
5,1,222,3,42,2,12, man027.jpg, cue_2.jpg,2,0.5046,1
5,1,223,3,43,3,203, man351.jpg, cue_3.jpg,3,0.6931,1
5,1,224,3,44,3,245, man429.jpg, cue_3.jpg,3,0.6176,1
5,1,225,3,45,3,47, man078.jpg, cue_3.jpg,3,0.303,1
5,1,226,3,46,1,141, man233.jpg, cue_1.jpg,1,0.5819,1
5,1,227,3,47,2,73, man115.jpg, cue_2.jpg,2,0.4627,1
5,1,228,3,48,2,244, man428.jpg, cue_2.jpg,2,0.3323,1
5,1,229,3,49,2,103, man160.jpg, cue_2.jpg,2,0.6396,1
5,1,230,3,50,1,87, man133.jpg, cue_1.jpg,1,0.3747,1
5,1,231,3,51,1,114, man174.jpg, cue_1.jpg,1,0.3124,1
5,1,232,3,52,1,266, man465.jpg, cue_1.jpg,1,0.3485,1
5,1,233,3,53,1,173, man287.jpg, cue_1.jpg,1,0.4789,1
5,1,234,3,54,3,119, man186.jpg, cue_3.jpg,3,0.3321,1
5,1,235,3,55,3,231, man404.jpg, cue_3.jpg,3,0.2871,1
5,1,236,3,56,2,213, man366.jpg, cue_2.jpg,2,0.3408,1
5,1,237,3,57,1,79, man123.jpg, cue_1.jpg,1,0.3443,1
5,1,238,3,58,3,74, man117.jpg, cue_3.jpg,2,0.6833,0
5,1,239,3,59,3,31, man058.jpg, cue_3.jpg,3,0.3516,1
5,1,240,3,60,3,28, man052.jpg, cue_3.jpg,2,0.5945,0
5,1,241,3,61,1,11, man025.jpg, cue_1.jpg,1,0.3627,1
5,1,242,3,62,2,182, man310.jpg, cue_2.jpg,2,0.301,1
5,1,243,3,63,1,183, man311.jpg, cue_1.jpg,1,0.3379,1
5,1,244,3,64,2,116, man179.jpg, cue_2.jpg,2,0.4041,1
5,1,245,3,65,1,162, man268.jpg, cue_1.jpg,1,0.2617,1
5,1,246,3,66,2,26, man048.jpg, cue_2.jpg,2,0.3321,1
5,1,247,3,67,2,2, man004.jpg, cue_2.jpg,2,1.5493,1
5,1,248,3,68,3,38, man066.jpg, cue_3.jpg,3,0.7997,1
5,1,249,3,69,3,17, man035.jpg, cue_3.jpg,3,0.6234,1
5,1,250,3,70,3,120, man187.jpg, cue_3.jpg,3,1.1265,1
5,1,251,3,71,1,78, man122.jpg, cue_1.jpg,1,0.4414,1
5,1,252,3,72,2,251, man437.jpg, cue_2.jpg,2,0.7924,1
5,1,253,3,73,2,189, man322.jpg, cue_2.jpg,2,0.6339,1
5,1,254,3,74,1,199, man341.jpg, cue_1.jpg,1,0.3364,1
5,1,255,3,75,3,77, man121.jpg, cue_3.jpg,3,0.3395,1
5,1,256,3,76,2,175, man291.jpg, cue_2.jpg,2,0.3273,1
5,1,257,3,77,1,242, man424.jpg, cue_1.jpg,1,0.2985,1
5,1,258,3,78,2,192, man330.jpg, cue_2.jpg,2,0.2868,1
5,1,259,3,79,2,210, man360.jpg, cue_2.jpg,2,0.2921,1
5,1,260,3,80,1,201, man348.jpg, cue_1.jpg,1,0.3291,1
5,1,261,3,81,2,225, man389.jpg, cue_2.jpg,2,0.3966,1
5,1,262,3,82,3,193, man332.jpg, cue_3.jpg,3,0.3972,1
5,1,263,3,83,3,53, man088.jpg, cue_3.jpg,3,0.3661,1
5,1,264,3,84,1,99, man155.jpg, cue_1.jpg,1,0.9442,1
5,1,265,3,85,3,153, man252.jpg, cue_3.jpg,3,0.4094,1
5,1,266,3,86,1,133, man207.jpg, cue_1.jpg,1,0.4575,1
5,1,267,3,87,1,206, man355.jpg, cue_1.jpg,1,0.2634,1
5,1,268,3,88,1,4, man007.jpg, cue_1.jpg,1,0.2377,1
5,1,269,3,89,2,157, man258.jpg, cue_2.jpg,2,0.4698,1
5,1,270,3,90,1,264, man463.jpg, cue_1.jpg,1,0.6598,1
5,1,271,4,1,2,216, man374.jpg, cue_2.jpg,2,0.3844,1
5,1,272,4,2,3,28, man052.jpg, cue_3.jpg,3,0.4494,1
5,1,273,4,3,2,12, man027.jpg, cue_2.jpg,2,0.3681,1
5,1,274,4,4,2,29, man055.jpg, cue_2.jpg,2,0.2741,1
5,1,275,4,5,3,47, man078.jpg, cue_3.jpg,3,0.2317,1
5,1,276,4,6,1,114, man174.jpg, cue_1.jpg,1,0.349,1
5,1,277,4,7,3,42, man071.jpg, cue_3.jpg,3,0.3702,1
5,1,278,4,8,2,210, man360.jpg, cue_2.jpg,2,0.2759,1
5,1,279,4,9,3,118, man184.jpg, cue_3.jpg,3,0.3615,1
5,1,280,4,10,3,253, man443.jpg, cue_3.jpg,3,0.2677,1
5,1,281,4,11,3,193, man332.jpg, cue_3.jpg,3,0.226,1
5,1,282,4,12,2,157, man258.jpg, cue_2.jpg,2,0.3611,1
5,1,283,4,13,3,203, man351.jpg, cue_3.jpg,3,0.2831,1
5,1,284,4,14,3,9, man022.jpg, cue_3.jpg,3,0.3046,1
5,1,285,4,15,1,242, man424.jpg, cue_1.jpg,1,0.2455,1
5,1,286,4,16,1,63, man101.jpg, cue_1.jpg,1,0.2522,1
5,1,287,4,17,3,185, man313.jpg, cue_3.jpg,3,0.2752,1
5,1,288,4,18,3,81, man125.jpg, cue_3.jpg,3,0.3123,1
5,1,289,4,19,3,226, man390.jpg, cue_3.jpg,3,0.2977,1
5,1,290,4,20,2,67, man107.jpg, cue_2.jpg,2,0.2889,1
5,1,291,4,21,1,144, man240.jpg, cue_1.jpg,1,0.2147,1
5,1,292,4,22,2,165, man275.jpg, cue_2.jpg,2,0.2864,1
5,1,293,4,23,3,74, man117.jpg, cue_3.jpg,3,0.276,1
5,1,294,4,24,3,38, man066.jpg, cue_3.jpg,3,0.3617,1
5,1,295,4,25,2,116, man179.jpg, cue_2.jpg,2,0.3794,1
5,1,296,4,26,1,170, man281.jpg, cue_1.jpg,1,0.685,1
5,1,297,4,27,1,4, man007.jpg, cue_1.jpg,1,0.306,1
5,1,298,4,28,2,182, man310.jpg, cue_2.jpg,2,0.2789,1
5,1,299,4,29,1,201, man348.jpg, cue_1.jpg,1,0.2838,1
5,1,300,4,30,1,94, man144.jpg, cue_1.jpg,1,0.3057,1
5,1,301,4,31,1,168, man278.jpg, cue_1.jpg,1,0.2465,1
5,1,302,4,32,3,231, man404.jpg, cue_3.jpg,3,0.2671,1
5,1,303,4,33,1,11, man025.jpg, cue_1.jpg,1,0.2761,1
5,1,304,4,34,2,225, man389.jpg, cue_2.jpg,2,0.345,1
5,1,305,4,35,3,123, man190.jpg, cue_3.jpg,3,0.4919,1
5,1,306,4,36,1,87, man133.jpg, cue_1.jpg,1,0.2968,1
5,1,307,4,37,3,171, man282.jpg, cue_3.jpg,3,0.2695,1
5,1,308,4,38,1,19, man039.jpg, cue_1.jpg,1,0.244,1
5,1,309,4,39,3,245, man429.jpg, cue_3.jpg,3,0.6193,1
5,1,310,4,40,1,79, man123.jpg, cue_1.jpg,1,0.3542,1
5,1,311,4,41,2,189, man322.jpg, cue_2.jpg,2,0.4052,1
5,1,312,4,42,1,88, man135.jpg, cue_1.jpg,1,0.4699,1
5,1,313,4,43,2,5, man010.jpg, cue_2.jpg,2,0.8674,1
5,1,314,4,44,2,202, man350.jpg, cue_2.jpg,2,0.4325,1
5,1,315,4,45,1,78, man122.jpg, cue_1.jpg,1,0.3194,1
5,1,316,4,46,1,141, man233.jpg, cue_1.jpg,1,0.3397,1
5,1,317,4,47,2,227, man392.jpg, cue_2.jpg,2,0.5351,1
5,1,318,4,48,2,251, man437.jpg, cue_2.jpg,2,0.3702,1
5,1,319,4,49,1,266, man465.jpg, cue_1.jpg,1,0.3878,1
5,1,320,4,50,3,120, man187.jpg, cue_3.jpg,3,0.4052,1
5,1,321,4,51,2,8, man019.jpg, cue_2.jpg,2,0.3387,1
5,1,322,4,52,1,183, man311.jpg, cue_1.jpg,1,0.3934,1
5,1,323,4,53,2,26, man048.jpg, cue_2.jpg,2,0.3772,1
5,1,324,4,54,1,173, man287.jpg, cue_1.jpg,1,0.2962,1
5,1,325,4,55,2,58, man094.jpg, cue_2.jpg,2,0.7515,1
5,1,326,4,56,3,270, man471.jpg, cue_3.jpg,3,0.6897,1
5,1,327,4,57,2,267, man466.jpg, cue_2.jpg,2,0.565,1
5,1,328,4,58,2,213, man366.jpg, cue_2.jpg,2,0.3369,1
5,1,329,4,59,1,206, man355.jpg, cue_1.jpg,1,0.2121,1
5,1,330,4,60,2,175, man291.jpg, cue_2.jpg,2,0.3003,1
5,1,331,4,61,3,21, man041.jpg, cue_3.jpg,3,0.3377,1
5,1,332,4,62,3,17, man035.jpg, cue_3.jpg,3,0.5164,1
5,1,333,4,63,1,156, man257.jpg, cue_1.jpg,1,0.6885,1
5,1,334,4,64,2,73, man115.jpg, cue_2.jpg,2,0.5336,1
5,1,335,4,65,1,199, man341.jpg, cue_1.jpg,1,0.3368,1
5,1,336,4,66,2,256, man447.jpg, cue_2.jpg,2,1.3323,1
5,1,337,4,67,1,30, man056.jpg, cue_1.jpg,1,0.3341,1
5,1,338,4,68,3,119, man186.jpg, cue_3.jpg,3,0.3527,1
5,1,339,4,69,2,126, man196.jpg, cue_2.jpg,2,0.3397,1
5,1,340,4,70,1,60, man096.jpg, cue_1.jpg,1,1.4181,1
5,1,341,4,71,2,2, man004.jpg, cue_2.jpg,2,0.7807,1
5,1,342,4,72,3,235, man413.jpg, cue_3.jpg,3,0.3655,1
5,1,343,4,73,3,143, man237.jpg, cue_3.jpg,3,0.3356,1
5,1,344,4,74,2,244, man428.jpg, cue_2.jpg,2,0.6271,1
5,1,345,4,75,1,258, man451.jpg, cue_1.jpg,1,0.3621,1
5,1,346,4,76,3,97, man153.jpg, cue_3.jpg,3,0.3005,1
5,1,347,4,77,2,237, man416.jpg, cue_2.jpg,2,0.3377,1
5,1,348,4,78,1,99, man155.jpg, cue_1.jpg,1,0.4023,1
5,1,349,4,79,3,53, man088.jpg, cue_3.jpg,3,0.3098,1
5,1,350,4,80,3,153, man252.jpg, cue_3.jpg,3,0.2982,1
5,1,351,4,81,2,192, man330.jpg, cue_2.jpg,2,0.3029,1
5,1,352,4,82,1,162, man268.jpg, cue_1.jpg,1,0.3877,1
5,1,353,4,83,3,77, man121.jpg, cue_3.jpg,3,0.2923,1
5,1,354,4,84,3,31, man058.jpg, cue_3.jpg,3,0.2977,1
5,1,355,4,85,3,41, man070.jpg, cue_3.jpg,3,0.4947,1
5,1,356,4,86,1,133, man207.jpg, cue_1.jpg,1,0.9072,1
5,1,357,4,87,1,264, man463.jpg, cue_1.jpg,1,0.2788,1
5,1,358,4,88,2,103, man160.jpg, cue_2.jpg,2,0.956,1
5,1,359,4,89,2,220, man380.jpg, cue_2.jpg,3,0.6612,0
5,1,360,4,90,1,7, man017.jpg, cue_1.jpg,1,0.491,1
6,2,1,1,1,3,192, man330.jpg, cue_3.jpg,2,0.9999,0
6,2,2,1,2,3,66, man106.jpg, cue_3.jpg,1,0.6714,0
6,2,3,1,3,2,72, man114.jpg, cue_2.jpg,2,0.6448,1
6,2,4,1,4,1,35, man062.jpg, cue_1.jpg,1,0.6983,1
6,2,5,1,5,1,179, man303.jpg, cue_1.jpg,1,0.4625,1
6,2,6,1,6,1,117, man180.jpg, cue_1.jpg,3,1.2439,0
6,2,7,1,7,1,221, man382.jpg, cue_1.jpg,1,0.5529,1
6,2,8,1,8,1,224, man387.jpg, cue_1.jpg,1,1.0564,1
6,2,9,1,9,3,237, man416.jpg, cue_3.jpg,1,0.7924,0
6,2,10,1,10,1,99, man155.jpg, cue_1.jpg,2,0.7442,0
6,2,11,1,11,3,14, man031.jpg, cue_3.jpg,3,1.1306,1
6,2,12,1,12,3,175, man291.jpg, cue_3.jpg,3,0.5718,1
6,2,13,1,13,3,252, man439.jpg, cue_3.jpg,1,1.1093,0
6,2,14,1,14,2,215, man372.jpg, cue_2.jpg,2,0.473,1
6,2,15,1,15,3,246, man430.jpg, cue_3.jpg,1,0.6631,0
6,2,16,1,16,1,29, man055.jpg, cue_1.jpg,2,0.5542,0
6,2,17,1,17,2,68, man109.jpg, cue_2.jpg,2,0.6952,1
6,2,18,1,18,3,126, man196.jpg, cue_3.jpg,1,0.507,0
6,2,19,1,19,1,85, man130.jpg, cue_1.jpg,3,0.6285,0
6,2,20,1,20,1,46, man077.jpg, cue_1.jpg,1,0.6226,1
6,2,21,1,21,3,191, man328.jpg, cue_3.jpg,1,0.5661,0
6,2,22,1,22,1,244, man428.jpg, cue_1.jpg,1,0.4778,1
6,2,23,1,23,2,242, man424.jpg, cue_2.jpg,3,0.7164,0
6,2,24,1,24,1,113, man172.jpg, cue_1.jpg,1,0.5599,1
6,2,25,1,25,3,213, man366.jpg, cue_3.jpg,3,1.674,1
6,2,26,1,26,1,37, man064.jpg, cue_1.jpg,1,0.4848,1
6,2,27,1,27,1,12, man027.jpg, cue_1.jpg,1,0.4342,1
6,2,28,1,28,3,124, man191.jpg, cue_3.jpg,3,0.5129,1
6,2,29,1,29,2,268, man467.jpg, cue_2.jpg,3,0.5247,0
6,2,30,1,30,1,207, man357.jpg, cue_1.jpg,1,0.5686,1
6,2,31,1,31,3,24, man045.jpg, cue_3.jpg,2,1.1539,0
6,2,32,1,32,3,67, man107.jpg, cue_3.jpg,1,0.4671,0
6,2,33,1,33,3,147, man245.jpg, cue_3.jpg,2,1.47,0
6,2,34,1,34,1,45, man076.jpg, cue_1.jpg,1,0.4364,1
6,2,35,1,35,2,86, man131.jpg, cue_2.jpg,2,0.4678,1
6,2,36,1,36,3,82, man126.jpg, cue_3.jpg,1,0.5295,0
6,2,37,1,37,2,267, man466.jpg, cue_2.jpg,3,0.813,0
6,2,38,1,38,3,170, man281.jpg, cue_3.jpg,3,0.8595,1
6,2,39,1,39,3,177, man299.jpg, cue_3.jpg,1,0.4569,0
6,2,40,1,40,1,60, man096.jpg, cue_1.jpg,1,0.6788,1
6,2,41,1,41,3,269, man468.jpg, cue_3.jpg,2,0.7479,0
6,2,42,1,42,3,134, man208.jpg, cue_3.jpg,2,1.5013,0
6,2,43,1,43,3,100, man156.jpg, cue_3.jpg,1,1.2318,0
6,2,44,1,44,3,239, man421.jpg, cue_3.jpg,3,1.1659,1
6,2,45,1,45,2,32, man059.jpg, cue_2.jpg,2,0.6224,1
6,2,46,1,46,1,56, man092.jpg, cue_1.jpg,1,1.8934,1
6,2,47,1,47,1,43, man072.jpg, cue_1.jpg,1,0.5361,1
6,2,48,1,48,3,50, man084.jpg, cue_3.jpg,3,1.1391,1
6,2,49,1,49,2,108, man166.jpg, cue_2.jpg,3,0.7084,0
6,2,50,1,50,2,64, man102.jpg, cue_2.jpg,3,0.8566,0
6,2,51,1,51,2,141, man233.jpg, cue_2.jpg,3,1.3958,0
6,2,52,1,52,2,212, man365.jpg, cue_2.jpg,1,0.8134,0
6,2,53,1,53,3,232, man407.jpg, cue_3.jpg,2,1.6767,0
6,2,54,1,54,3,97, man153.jpg, cue_3.jpg,3,1.2403,1
6,2,55,1,55,2,53, man088.jpg, cue_2.jpg,2,0.694,1
6,2,56,1,56,1,159, man260.jpg, cue_1.jpg,1,0.4574,1
6,2,57,1,57,2,166, man276.jpg, cue_2.jpg,2,0.4731,1
6,2,58,1,58,2,228, man396.jpg, cue_2.jpg,2,1.3504,1
6,2,59,1,59,3,230, man403.jpg, cue_3.jpg,1,0.4786,0
6,2,60,1,60,2,196, man337.jpg, cue_2.jpg,3,0.8759,0
6,2,61,1,61,3,33, man060.jpg, cue_3.jpg,3,0.9851,1
6,2,62,1,62,2,182, man310.jpg, cue_2.jpg,3,0.6409,0
6,2,63,1,63,2,158, man259.jpg, cue_2.jpg,2,0.5678,1
6,2,64,1,64,2,102, man158.jpg, cue_2.jpg,2,0.9112,1
6,2,65,1,65,1,98, man154.jpg, cue_1.jpg,1,0.4927,1
6,2,66,1,66,3,136, man212.jpg, cue_3.jpg,3,1.2574,1
6,2,67,1,67,2,165, man275.jpg, cue_2.jpg,3,0.6777,0
6,2,68,1,68,3,154, man253.jpg, cue_3.jpg,1,0.6506,0
6,2,69,1,69,1,13, man029.jpg, cue_1.jpg,2,1.073,0
6,2,70,1,70,2,260, man459.jpg, cue_2.jpg,2,0.5809,1
6,2,71,1,71,2,111, man169.jpg, cue_2.jpg,2,0.4941,1
6,2,72,1,72,1,61, man099.jpg, cue_1.jpg,1,0.5547,1
6,2,73,1,73,1,223, man386.jpg, cue_1.jpg,1,0.5652,1
6,2,74,1,74,2,62, man100.jpg, cue_2.jpg,1,0.5425,0
6,2,75,1,75,2,164, man273.jpg, cue_2.jpg,2,0.4863,1
6,2,76,1,76,1,139, man223.jpg, cue_1.jpg,3,0.7263,0
6,2,77,1,77,1,218, man377.jpg, cue_1.jpg,3,0.9373,0
6,2,78,1,78,2,88, man135.jpg, cue_2.jpg,2,0.4978,1
6,2,79,1,79,1,181, man309.jpg, cue_1.jpg,1,1.2642,1
6,2,80,1,80,2,76, man120.jpg, cue_2.jpg,2,1.0365,1
6,2,81,1,81,2,253, man443.jpg, cue_2.jpg,2,0.6742,1
6,2,82,1,82,1,121, man188.jpg, cue_1.jpg,3,0.7919,0
6,2,83,1,83,3,180, man304.jpg, cue_3.jpg,2,0.6321,0
6,2,84,1,84,3,17, man035.jpg, cue_3.jpg,3,0.6068,1
6,2,85,1,85,2,241, man423.jpg, cue_2.jpg,2,0.727,1
